time_s,accel_x,accel_y,accel_z,gyro_x,gyro_y,gyro_z
0.000000,9.835148,0.124541,1.152603,-0.025351,0.005345,0.005498
0.010000,9.835148,0.124541,1.152603,-0.025351,0.005345,0.005498
0.020000,9.835148,0.124541,1.152603,-0.025351,0.005345,0.005498
0.030000,9.835148,0.124541,1.152603,-0.025351,0.005345,0.005498
0.040000,9.835148,0.124541,1.152603,-0.025351,0.005345,0.005498
0.050000,9.835148,0.124541,1.152603,-0.025351,0.005345,0.005498
0.060000,9.835148,0.124541,1.152603,-0.025351,0.005345,0.005498
0.070000,9.835148,0.124541,1.152603,-0.025351,0.005345,0.005498
0.080000,9.835148,0.124541,1.152603,-0.025351,0.005345,0.005498
0.090000,9.835148,0.124541,1.152603,-0.025351,0.005345,0.005498
0.100000,9.835148,0.124541,1.152603,-0.025351,0.005345,0.005498
0.110000,9.835148,0.124541,1.152603,-0.025351,0.005345,0.005498
0.120000,9.835148,0.124541,1.152603,-0.025351,0.005345,0.005498
0.130000,9.835148,0.124541,1.152603,-0.025351,0.005345,0.005498
0.140000,9.835148,0.124541,1.152603,-0.025351,0.005345,0.005498
0.150000,9.835148,0.124541,1.152603,-0.025351,0.005345,0.005498
0.160000,9.835148,0.124541,1.152603,-0.025351,0.005345,0.005498
0.170000,9.835148,0.124541,1.152603,-0.025351,0.005345,0.005498
0.180000,9.835148,0.124541,1.152603,-0.025351,0.005345,0.005498
0.190000,9.835148,0.124541,1.152603,-0.025351,0.005345,0.005498
0.200000,9.835148,0.124541,1.152603,-0.025351,0.005345,0.005498
0.210000,9.835148,0.124541,1.152603,-0.025351,0.005345,0.005498
0.220000,9.835148,0.124541,1.152603,-0.025351,0.005345,0.005498
0.230000,9.835148,0.124541,1.152603,-0.025351,0.005345,0.005498
0.240000,9.835148,0.124541,1.152603,-0.025351,0.005345,0.005498
0.250000,9.835148,0.124541,1.152603,-0.025351,0.005345,0.005498
0.260000,9.835148,0.124541,1.152603,-0.025351,0.005345,0.005498
0.270000,9.835148,0.124541,1.152603,-0.025351,0.005345,0.005498
0.280000,9.835148,0.124541,1.152603,-0.025351,0.005345,0.005498
0.290000,9.835148,0.124541,1.152603,-0.025351,0.005345,0.005498
0.300000,9.835148,0.124541,1.152603,-0.025351,0.005345,0.005498
0.310000,9.835148,0.124541,1.152603,-0.025351,0.005345,0.005498
0.320000,9.835148,0.124541,1.152603,-0.025351,0.005345,0.005498
0.330000,9.835148,0.124541,1.152603,-0.025351,0.005345,0.005498
0.340000,9.835148,0.124541,1.152603,-0.025351,0.005345,0.005498
0.350000,9.835148,0.124541,1.152603,-0.025351,0.005345,0.005498
0.360000,9.835148,0.124541,1.152603,-0.025351,0.005345,0.005498
0.370000,9.835148,0.124541,1.152603,-0.025351,0.005345,0.005498
0.380000,9.835148,0.124541,1.152603,-0.025351,0.005345,0.005498
0.390000,9.835148,0.124541,1.152603,-0.025351,0.005345,0.005498
0.400000,9.835148,0.124541,1.152603,-0.025351,0.005345,0.005498
0.410000,9.835148,0.124541,1.152603,-0.025351,0.005345,0.005498
0.420000,9.835148,0.124541,1.152603,-0.025351,0.005345,0.005498
0.430000,9.835148,0.124541,1.152603,-0.025351,0.005345,0.005498
0.440000,9.835148,0.124541,1.152603,-0.025351,0.005345,0.005498
0.450000,9.835148,0.124541,1.152603,-0.025351,0.005345,0.005498
0.460000,9.835148,0.124541,1.152603,-0.025351,0.005345,0.005498
0.470000,9.835148,0.124541,1.152603,-0.025351,0.005345,0.005498
0.480000,9.835148,0.124541,1.152603,-0.025351,0.005345,0.005498
0.490000,9.835148,0.124541,1.152603,-0.025351,0.005345,0.005498
0.500000,9.835148,0.124541,1.152603,-0.025351,0.005345,0.005498
0.510000,9.835148,0.124541,1.152603,-0.025351,0.005345,0.005498
0.520000,9.835148,0.124541,1.152603,-0.025351,0.005345,0.005498
0.530000,9.835148,0.124541,1.152603,-0.025351,0.005345,0.005498
0.540000,9.835148,0.124541,1.152603,-0.025351,0.005345,0.005498
0.550000,9.835148,0.124541,1.152603,-0.025351,0.005345,0.005498
0.560000,9.835148,0.124541,1.152603,-0.025351,0.005345,0.005498
0.570000,9.835148,0.124541,1.152603,-0.025351,0.005345,0.005498
0.580000,9.835148,0.124541,1.152603,-0.025351,0.005345,0.005498
0.590000,9.835148,0.124541,1.152603,-0.025351,0.005345,0.005498
0.600000,9.835148,0.124541,1.152603,-0.025351,0.005345,0.005498
0.610000,9.835148,0.124541,1.152603,-0.025351,0.005345,0.005498
0.620000,9.835148,0.124541,1.152603,-0.025351,0.005345,0.005498
0.630000,9.835148,0.124541,1.152603,-0.025351,0.005345,0.005498
0.640000,9.835148,0.124541,1.152603,-0.025351,0.005345,0.005498
0.650000,9.838765,0.135487,1.155516,-0.025326,0.005332,0.005488
0.660000,9.876834,0.250681,1.186168,-0.024341,0.004840,0.005119
0.670000,9.654893,0.222642,1.172991,-0.024753,0.007194,0.004421
0.680000,9.693436,0.204772,1.178640,-0.024831,0.004082,0.005914
0.690000,9.856277,0.150430,1.171733,-0.024435,0.003818,0.005437
0.700000,9.779028,0.150102,1.181438,-0.024707,0.004636,0.004505
0.710000,9.677865,0.186359,1.194970,-0.024699,0.005832,0.003873
0.720000,9.764259,0.229692,1.196129,-0.024221,0.004663,0.003971
0.730000,9.816023,0.183511,1.178449,-0.024487,0.004812,0.004214
0.740000,9.722603,0.119707,1.180911,-0.024129,0.005870,0.004343
0.750000,9.679806,0.197440,1.152903,-0.024228,0.005902,0.003586
0.760000,9.770935,0.248804,1.175531,-0.024417,0.004403,0.003882
0.770000,9.786753,0.226097,1.172386,-0.024534,0.003769,0.004946
0.780000,9.688808,0.126817,1.208735,-0.024435,0.005084,0.004953
0.790000,9.758809,0.174025,1.159407,-0.023878,0.005722,0.003774
0.800000,9.813389,0.271164,1.186034,-0.024890,0.003374,0.003520
0.810000,9.677106,0.203043,1.163339,-0.024404,0.005620,0.004773
0.820000,9.673045,0.172420,1.211849,-0.023930,0.005146,0.005364
0.830000,9.875369,0.156740,1.171665,-0.024440,0.004330,0.004927
0.840000,9.754031,0.189013,1.163795,-0.023946,0.005438,0.003981
0.850000,9.592952,0.222159,1.155399,-0.024490,0.005588,0.004585
0.860000,9.738878,0.233621,1.178457,-0.024770,0.004336,0.004764
0.870000,9.896648,0.149595,1.191472,-0.024380,0.004109,0.005066
0.880000,9.836149,0.111728,1.188330,-0.024129,0.004357,0.005325
0.890000,9.723480,0.087537,1.167453,-0.024129,0.004528,0.004645
0.900000,9.744562,0.198536,1.153444,-0.024129,0.004698,0.003965
0.910000,9.796828,0.270388,1.156304,-0.023216,0.005149,0.005229
0.920000,9.752348,0.088699,1.210007,-0.024371,0.004491,0.004767
0.930000,9.746407,0.146597,1.192770,-0.025526,0.003688,0.003795
0.940000,9.841122,0.279991,1.181405,-0.024525,0.003525,0.004657
0.950000,9.649337,0.299154,1.120732,-0.024283,0.007466,0.004278
0.960000,9.675636,0.169651,1.207523,-0.024891,0.004592,0.005341
0.970000,9.866599,0.119172,1.191119,-0.024627,0.004694,0.005458
0.980000,9.889504,0.139866,1.209928,-0.024960,0.004447,0.004983
0.990000,9.637371,0.208327,1.160256,-0.024530,0.004821,0.004763
1.000000,9.638485,0.280714,1.165144,-0.024290,0.003259,0.004883
1.010000,9.839032,0.198257,1.171506,-0.024714,0.004199,0.005700
1.020000,9.869915,0.075255,1.210312,-0.024770,0.004854,0.004705
1.030000,9.712990,0.108214,1.215612,-0.024980,0.005763,0.004231
1.040000,9.716798,0.281056,1.176117,-0.024380,0.004887,0.004325
1.050000,9.776099,0.318432,1.152550,-0.023581,0.004392,0.004717
1.060000,9.712539,0.135667,1.178835,-0.024129,0.004778,0.005040
1.070000,9.720093,0.083612,1.212480,-0.024435,0.004334,0.005628
1.080000,9.860938,0.155275,1.202039,-0.024950,0.004252,0.005159
1.090000,9.738497,0.300754,1.147912,-0.023936,0.006217,0.005872
1.100000,9.643841,0.225557,1.167341,-0.025019,0.005966,0.005956
1.110000,9.688583,0.172965,1.179101,-0.024602,0.004384,0.004585
1.120000,9.901747,0.094817,1.203825,-0.025151,0.002753,0.004750
1.130000,9.770328,0.163087,1.164210,-0.024833,0.004262,0.004841
1.140000,9.655542,0.243626,1.168445,-0.025215,0.005040,0.004581
1.150000,9.706997,0.302236,1.124913,-0.024575,0.004967,0.004521
1.160000,9.854000,0.185796,1.178704,-0.024380,0.004452,0.003854
1.170000,9.742681,0.104214,1.167085,-0.023998,0.006745,0.004109
1.180000,9.720190,0.203041,1.193142,-0.024546,0.004335,0.004382
1.190000,9.790771,0.282091,1.175566,-0.024550,0.004664,0.005056
1.200000,9.809972,0.280065,1.190027,-0.025006,0.004175,0.005582
1.210000,9.671078,0.157548,1.181016,-0.024516,0.006442,0.004772
1.220000,9.652320,0.144889,1.214411,-0.024642,0.005307,0.005067
1.230000,9.656819,0.165427,1.215976,-0.024769,0.004172,0.005361
1.240000,9.661318,0.185965,1.217541,-0.024886,0.003072,0.005673
1.250000,9.671529,0.204259,1.218489,-0.024453,0.004226,0.007115
1.260000,9.872178,0.149950,1.194710,-0.024266,0.004174,0.004581
1.270000,9.796735,0.203521,1.166770,-0.023631,0.006510,0.004548
1.280000,9.680851,0.179922,1.191361,-0.024977,0.005690,0.004282
1.290000,9.733085,0.232387,1.179497,-0.024620,0.004477,0.005259
1.300000,9.855680,0.173286,1.190007,-0.024529,0.003245,0.005413
1.310000,9.735217,0.144167,1.179122,-0.024186,0.004926,0.004825
1.320000,9.654049,0.180728,1.174189,-0.024707,0.004604,0.003943
1.330000,9.769439,0.255545,1.205707,-0.024823,0.003743,0.004362
1.340000,9.805324,0.198265,1.197931,-0.024963,0.003769,0.005863
1.350000,9.733394,0.140953,1.200916,-0.024775,0.005027,0.006426
1.360000,9.735782,0.170888,1.157427,-0.024099,0.004580,0.004433
1.370000,9.779109,0.240604,1.140663,-0.024610,0.005098,0.003840
1.380000,9.789628,0.276490,1.154018,-0.025525,0.005403,0.004756
1.390000,9.709709,0.154227,1.224754,-0.024122,0.004200,0.006727
1.400000,9.898188,0.091398,1.180282,-0.024392,0.003971,0.004754
1.410000,9.825804,0.215033,1.193398,-0.024737,0.005344,0.003212
1.420000,9.601602,0.212149,1.144025,-0.024412,0.005236,0.003754
1.430000,9.673987,0.259488,1.159902,-0.024435,0.002812,0.004797
1.440000,9.884767,0.154272,1.179107,-0.024328,0.003260,0.005352
1.450000,9.832796,0.108674,1.172428,-0.024057,0.003584,0.005858
1.460000,9.669797,0.145521,1.172462,-0.025415,0.004302,0.003756
1.470000,9.701753,0.301581,1.185376,-0.024190,0.004704,0.003420
1.480000,9.778362,0.260745,1.185150,-0.023928,0.004994,0.004607
1.490000,9.768855,0.112201,1.216473,-0.024163,0.005167,0.005828
1.500000,9.783563,0.093365,1.205928,-0.024654,0.004906,0.006090
1.510000,9.808477,0.204106,1.181701,-0.024587,0.004719,0.005892
1.520000,9.721985,0.293091,1.130750,-0.024587,0.004873,0.005644
1.530000,9.641597,0.223529,1.177526,-0.024499,0.005504,0.005635
1.540000,9.871204,0.103248,1.191567,-0.024435,0.003966,0.006212
1.550000,9.951346,0.149174,1.240155,-0.025136,0.004659,0.005700
1.560000,9.642354,0.164381,1.168602,-0.024897,0.006989,0.004297
1.570000,9.582925,0.333236,1.194123,-0.024743,0.004286,0.004741
1.580000,9.807999,0.222234,1.171822,-0.024928,0.005075,0.005379
1.590000,9.854408,0.104322,1.176121,-0.023938,0.004239,0.005362
1.600000,9.720172,0.057814,1.206772,-0.023679,0.005016,0.003419
1.610000,9.720809,0.262061,1.182355,-0.024486,0.004400,0.003200
1.620000,9.764483,0.330382,1.155893,-0.023843,0.004590,0.004008
1.630000,9.702270,0.216219,1.155335,-0.024211,0.005930,0.004958
1.640000,9.747970,0.073526,1.207568,-0.024168,0.003856,0.004655
1.650000,9.846105,0.162845,1.206694,-0.024591,0.003941,0.003472
1.660000,9.777152,0.255242,1.174043,-0.024450,0.005350,0.003490
1.670000,9.616718,0.244091,1.167468,-0.024370,0.004888,0.004752
1.680000,9.786900,0.171877,1.168481,-0.025266,0.002780,0.005851
1.690000,9.769653,0.122374,1.161381,-0.025321,0.004916,0.005681
1.700000,9.693984,0.079790,1.163346,-0.025076,0.007201,0.005518
1.710000,9.633447,0.295192,1.174332,-0.024011,0.004676,0.005498
1.720000,9.797450,0.256680,1.174474,-0.023549,0.003300,0.005355
1.730000,9.799252,0.163474,1.149539,-0.024021,0.004434,0.004090
1.740000,9.708548,0.048224,1.211211,-0.025148,0.004656,0.003581
1.750000,9.767711,0.234203,1.188022,-0.024957,0.004588,0.005336
1.760000,9.799128,0.284963,1.190604,-0.024978,0.003784,0.004734
1.770000,9.692370,0.193505,1.162552,-0.024381,0.004942,0.004307
1.780000,9.730365,0.128232,1.184204,-0.024282,0.003673,0.003636
1.790000,9.838756,0.211479,1.171741,-0.024659,0.004581,0.003969
1.800000,9.742215,0.216174,1.165774,-0.023947,0.006017,0.004377
1.810000,9.678922,0.201093,1.192898,-0.023343,0.004915,0.005053
1.820000,9.780877,0.173087,1.209323,-0.023444,0.003734,0.004902
1.830000,9.855962,0.184541,1.171943,-0.023763,0.004448,0.004667
1.840000,9.732425,0.158443,1.181434,-0.024362,0.004732,0.004576
1.850000,9.647183,0.224774,1.164831,-0.025253,0.004581,0.004110
1.860000,9.844522,0.213189,1.223982,-0.026052,0.003610,0.004052
1.870000,9.820691,0.167049,1.164460,-0.025773,0.003091,0.003857
1.880000,9.721589,0.118330,1.161768,-0.024334,0.004087,0.003082
1.890000,9.706582,0.136918,1.223444,-0.023816,0.004822,0.004569
1.900000,9.861191,0.302601,1.243036,-0.024461,0.002868,0.004743
1.910000,9.706032,0.139889,1.167810,-0.024893,0.004088,0.004903
1.920000,9.725193,0.116308,1.213500,-0.024931,0.005567,0.005038
1.930000,9.742872,0.204292,1.187550,-0.025018,0.003999,0.004690
1.940000,9.722312,0.292281,1.140436,-0.024689,0.005178,0.005057
1.950000,9.639044,0.198654,1.173903,-0.024587,0.005075,0.004809
1.960000,9.681735,0.185973,1.146672,-0.024587,0.004360,0.004332
1.970000,9.743729,0.185696,1.110140,-0.024142,0.005463,0.004647
1.980000,9.730761,0.228705,1.104164,-0.023662,0.006605,0.005025
1.990000,9.686225,0.289943,1.111057,-0.023517,0.004870,0.004808
2.000000,9.753893,0.272915,1.161073,-0.023372,0.003135,0.004592
2.010000,9.915000,0.149436,1.238180,-0.023560,0.003346,0.004581
2.020000,9.771479,0.035121,1.144214,-0.023764,0.003653,0.004581
2.030000,9.781687,0.195770,1.152542,-0.023969,0.003959,0.004581
2.040000,9.791896,0.356419,1.160870,-0.024005,0.004261,0.004407
2.050000,9.751378,0.333715,1.172333,-0.024036,0.004562,0.004226
2.060000,9.710145,0.308423,1.183840,-0.024066,0.004864,0.004045
2.070000,9.668912,0.283132,1.195347,-0.024096,0.005166,0.003864
2.080000,9.627678,0.257841,1.206854,-0.024126,0.005468,0.003683
2.090000,9.586445,0.232549,1.218361,-0.023883,0.005251,0.004713
2.100000,9.831000,0.144560,1.248919,-0.023609,0.004977,0.005877
2.110000,9.986664,0.093634,1.267496,-0.023890,0.003399,0.005270
2.120000,9.722703,0.215274,1.230338,-0.024106,0.003704,0.004390
2.130000,9.621228,0.308353,1.172291,-0.024260,0.004472,0.003622
2.140000,9.691760,0.297768,1.122598,-0.024820,0.004366,0.003190
2.150000,9.734483,0.097116,1.157366,-0.024231,0.004451,0.003462
2.160000,9.749654,0.005439,1.193728,-0.022958,0.004723,0.004098
2.170000,9.712599,0.183164,1.188925,-0.023227,0.004295,0.004163
2.180000,9.709418,0.288927,1.138562,-0.023560,0.003837,0.004205
2.190000,9.715173,0.327391,1.111362,-0.023893,0.003379,0.004247
2.200000,9.748543,0.157873,1.155743,-0.024289,0.003150,0.004468
2.210000,9.718084,0.141924,1.146374,-0.024842,0.003482,0.005131
2.220000,9.640697,0.265327,1.094587,-0.024616,0.003559,0.005285
2.230000,9.641203,0.267704,1.101112,-0.024311,0.003610,0.005386
2.240000,9.641708,0.270082,1.107637,-0.024005,0.003660,0.005488
2.250000,9.642214,0.272459,1.114162,-0.024105,0.003655,0.005498
2.260000,9.642720,0.274837,1.120688,-0.024247,0.003644,0.005498
2.270000,9.643226,0.277214,1.127213,-0.024390,0.003633,0.005498
2.280000,9.643732,0.279591,1.133738,-0.024532,0.003622,0.005498
2.290000,9.644238,0.281969,1.140263,-0.024674,0.003612,0.005498
2.300000,9.644744,0.284346,1.146788,-0.024816,0.003601,0.005498
2.310000,9.645250,0.286724,1.153314,-0.024959,0.003590,0.005498
2.320000,9.645755,0.289101,1.159839,-0.025101,0.003579,0.005498
2.330000,9.646261,0.291478,1.166364,-0.025243,0.003568,0.005498
2.340000,9.656385,0.283787,1.167214,-0.025385,0.003557,0.005498
2.350000,9.678367,0.263680,1.161068,-0.025527,0.003546,0.005498
2.360000,9.700349,0.243573,1.154921,-0.025670,0.003535,0.005498
2.370000,9.722331,0.223466,1.148774,-0.025812,0.003524,0.005498
2.380000,9.744313,0.203359,1.142628,-0.025954,0.003513,0.005498
2.390000,9.766296,0.183252,1.136481,-0.025231,0.003604,0.004676
2.400000,9.731616,0.225230,1.134360,-0.024592,0.003776,0.004419
2.410000,9.687735,0.256946,1.129076,-0.024187,0.004080,0.005230
2.420000,9.701680,0.146972,1.104990,-0.024291,0.005744,0.004778
2.430000,9.697191,0.086658,1.114846,-0.024435,0.006817,0.004321
2.440000,9.652970,0.133382,1.197865,-0.024435,0.005323,0.004508
2.450000,9.777314,0.288291,1.161856,-0.024235,0.004335,0.005480
2.460000,9.821004,0.315230,1.195922,-0.024346,0.004882,0.005306
2.470000,9.759810,0.104823,1.181318,-0.024689,0.005192,0.005167
2.480000,9.805617,0.208966,1.208524,-0.023887,0.004979,0.004233
2.490000,9.721267,0.285416,1.136081,-0.023167,0.005660,0.004521
2.500000,9.644459,0.236315,1.156543,-0.022957,0.004818,0.004874
2.510000,9.821158,0.137445,1.177325,-0.025031,0.003880,0.003741
2.520000,9.953982,0.139762,1.249915,-0.024384,0.004587,0.003433
2.530000,9.912587,0.140010,1.229471,-0.023220,0.004780,0.003679
2.540000,9.751070,0.138831,1.144880,-0.023694,0.004915,0.004627
2.550000,9.760148,0.138312,1.131052,-0.024165,0.005004,0.005542
2.560000,9.903033,0.138312,1.172727,-0.024603,0.004566,0.006089
2.570000,9.712443,-0.001204,1.202515,-0.025430,0.003221,0.005313
2.580000,9.679859,0.158049,1.179299,-0.025358,0.002844,0.004280
2.590000,9.733929,0.324432,1.197230,-0.024091,0.004094,0.003765
2.600000,9.772861,0.093676,1.250283,-0.023388,0.006122,0.005449
2.610000,9.793966,0.039991,1.212420,-0.023480,0.004922,0.004617
2.620000,9.830573,0.263275,1.207448,-0.022875,0.004542,0.005024
2.630000,9.612526,0.305829,1.093011,-0.021959,0.007749,0.004565
2.640000,9.627521,0.264063,1.168618,-0.024181,0.003964,0.003805
2.650000,9.824619,0.135258,1.221952,-0.024044,0.003018,0.004477
2.660000,9.807433,0.098109,1.218474,-0.023336,0.004030,0.004355
2.670000,9.732897,0.085990,1.202718,-0.022671,0.005360,0.003838
2.680000,9.634368,0.344406,1.146882,-0.024104,0.006024,0.003665
2.690000,9.731196,0.307999,1.204204,-0.023798,0.003597,0.004084
2.700000,9.772560,0.111664,1.087108,-0.022271,0.006958,0.005097
2.710000,9.765105,0.105305,1.241414,-0.023998,0.003163,0.003528
2.720000,9.794499,0.328180,1.217834,-0.024664,0.003385,0.002935
2.730000,9.733627,0.318149,1.173829,-0.024344,0.004261,0.003064
2.740000,9.656383,0.202337,1.139015,-0.022805,0.005855,0.004130
2.750000,9.759936,0.101050,1.221688,-0.024146,0.003611,0.004347
2.760000,9.817002,0.104162,1.218835,-0.024755,0.003967,0.004600
2.770000,9.862046,0.111076,1.214892,-0.025364,0.004322,0.004854
2.780000,9.619965,0.202472,1.179501,-0.025489,0.004381,0.005060
2.790000,9.708649,0.164003,1.152320,-0.024294,0.003635,0.005134
2.800000,9.797333,0.125535,1.125139,-0.023411,0.004147,0.004737
2.810000,9.702292,0.158797,1.229318,-0.022791,0.003811,0.004635
2.820000,9.705494,0.263037,1.166348,-0.024274,0.004355,0.003958
2.830000,9.770914,0.216989,1.185361,-0.024254,0.003794,0.004273
2.840000,9.658660,0.052802,1.133832,-0.024015,0.003584,0.004243
2.850000,9.661286,0.068003,1.156357,-0.023775,0.003375,0.004213
2.860000,9.663911,0.083203,1.178881,-0.023536,0.003165,0.004183
2.870000,9.666537,0.098404,1.201406,-0.023296,0.002955,0.004153
2.880000,9.669163,0.113605,1.223930,-0.023194,0.002982,0.004040
2.890000,9.699577,0.185369,1.142009,-0.022848,0.005729,0.004734
2.900000,9.695437,0.220557,1.112341,-0.022746,0.006393,0.004734
2.910000,9.689464,0.248236,1.094070,-0.022644,0.007056,0.004734
2.920000,9.737663,0.167542,1.239893,-0.023403,0.003471,0.004581
2.930000,9.888474,0.178079,1.246808,-0.023486,0.003722,0.004581
2.940000,9.731481,0.140957,1.138734,-0.022934,0.006506,0.004114
2.950000,9.635782,0.245164,1.199391,-0.023931,0.003950,0.003971
2.960000,9.752288,0.237287,1.186953,-0.024402,0.004670,0.004567
2.970000,9.847499,0.138826,1.168922,-0.024608,0.005323,0.004996
2.980000,9.726803,0.047896,1.177077,-0.024038,0.005228,0.004806
2.990000,9.720694,0.278426,1.164013,-0.023894,0.004350,0.004296
3.000000,9.796346,0.292614,1.176482,-0.024222,0.004335,0.003268
3.010000,9.787143,0.189571,1.175011,-0.023637,0.005222,0.003428
3.020000,9.785742,0.074701,1.242252,-0.023555,0.003834,0.003591
3.030000,9.775618,0.181500,1.173831,-0.023518,0.004488,0.003468
3.040000,9.798267,0.310409,1.189796,-0.024000,0.006076,0.003279
3.050000,9.720943,0.235726,1.204883,-0.024355,0.005961,0.003801
3.060000,9.807795,0.129827,1.217261,-0.024141,0.003501,0.005406
3.070000,9.919258,0.108775,1.209031,-0.024057,0.004236,0.005618
3.080000,9.943623,0.137323,1.193848,-0.023495,0.004517,0.004776
3.090000,9.614586,0.274770,1.143706,-0.023740,0.003895,0.004207
3.100000,9.692995,0.285636,1.179880,-0.024228,0.003001,0.003719
3.110000,9.778904,0.238402,1.217529,-0.024993,0.004560,0.005443
3.120000,9.736350,0.251376,1.188467,-0.025198,0.004979,0.004867
3.130000,9.693795,0.264350,1.159406,-0.025198,0.004898,0.003402
3.140000,9.756688,0.326626,1.165985,-0.023165,0.004978,0.003609
3.150000,9.725908,0.173172,1.151971,-0.022946,0.005918,0.004467
3.160000,9.762523,0.064547,1.255308,-0.023467,0.003728,0.004571
3.170000,9.816927,0.198932,1.167240,-0.023941,0.004808,0.005210
3.180000,9.737448,0.271321,1.162815,-0.023389,0.004636,0.005519
3.190000,9.658510,0.255707,1.164839,-0.023995,0.004454,0.005277
3.200000,9.621903,0.263842,1.160745,-0.024583,0.004281,0.005035
3.210000,9.621739,0.292423,1.151382,-0.024394,0.004469,0.004846
3.220000,9.621574,0.321004,1.142019,-0.024205,0.004658,0.004657
3.230000,9.621410,0.349585,1.132656,-0.024016,0.004847,0.004468
3.240000,9.742205,0.300732,1.169953,-0.023805,0.004031,0.004258
3.250000,9.810592,0.246808,1.182481,-0.023589,0.002950,0.004041
3.260000,9.794314,0.198301,1.156600,-0.023431,0.003205,0.004145
3.270000,9.778037,0.149794,1.130718,-0.023302,0.004110,0.004403
3.280000,9.761759,0.101286,1.104837,-0.023173,0.005014,0.004662
3.290000,9.688798,0.153923,1.145547,-0.023103,0.005771,0.004868
3.300000,9.686123,0.169344,1.156402,-0.023435,0.005522,0.004723
3.310000,9.711483,0.162889,1.151146,-0.023768,0.005273,0.004577
3.320000,9.736843,0.156433,1.145889,-0.024100,0.005023,0.004432
3.330000,9.762203,0.149978,1.140633,-0.024433,0.004774,0.004286
3.340000,9.787563,0.143523,1.135376,-0.024765,0.004524,0.004141
3.350000,9.812923,0.137068,1.130120,-0.025098,0.004275,0.003995
3.360000,9.807513,0.157499,1.130878,-0.025431,0.004025,0.003850
3.370000,9.716888,0.252389,1.148292,-0.025237,0.003704,0.003497
3.380000,9.751313,0.267890,1.186209,-0.024894,0.003361,0.003087
3.390000,9.817083,0.190169,1.203596,-0.023864,0.006585,0.003152
3.400000,9.644631,0.119626,1.194996,-0.023016,0.005102,0.004256
3.410000,9.755515,0.215952,1.161213,-0.024507,0.004134,0.003629
3.420000,9.835907,0.280461,1.164967,-0.024926,0.003960,0.004200
3.430000,9.715084,0.109305,1.183558,-0.023641,0.004917,0.003890
3.440000,9.696694,0.131292,1.167866,-0.025354,0.004663,0.004310
3.450000,9.699767,0.135257,1.154782,-0.024797,0.004967,0.004437
3.460000,9.702840,0.139222,1.141697,-0.024240,0.005271,0.004563
3.470000,9.705913,0.143187,1.128612,-0.023682,0.005575,0.004690
3.480000,9.708986,0.147152,1.115528,-0.023125,0.005879,0.004817
3.490000,9.712059,0.151117,1.102443,-0.022568,0.006183,0.004943
3.500000,9.679991,0.196001,1.138706,-0.022882,0.005335,0.004869
3.510000,9.725406,0.269438,1.144533,-0.024230,0.004419,0.004380
3.520000,9.882892,0.173484,1.182929,-0.024214,0.003934,0.004208
3.530000,9.771270,0.055085,1.180793,-0.024098,0.003398,0.004061
3.540000,9.644474,0.204935,1.171299,-0.024359,0.004680,0.003435
3.550000,9.739825,0.344497,1.185149,-0.024597,0.003941,0.002953
3.560000,9.798221,0.304318,1.170000,-0.024469,0.003784,0.002834
3.570000,9.785619,0.138025,1.221898,-0.023662,0.004806,0.003713
3.580000,9.786836,0.074591,1.246745,-0.024142,0.005046,0.003873
3.590000,9.831914,0.249943,1.198962,-0.024184,0.004188,0.003971
3.600000,9.596968,0.330279,1.068537,-0.023715,0.006760,0.005148
3.610000,9.606207,0.249135,1.158920,-0.023824,0.004049,0.005341
3.620000,9.924591,0.112681,1.226751,-0.023152,0.004093,0.005131
3.630000,9.848164,0.110671,1.200728,-0.023035,0.005065,0.004666
3.640000,9.640793,0.244603,1.171633,-0.025165,0.005782,0.002994
3.650000,9.706825,0.304825,1.177099,-0.023529,0.004526,0.004153
3.660000,9.849750,0.163788,1.154979,-0.023630,0.004794,0.005252
3.670000,9.779245,0.005564,1.186311,-0.024880,0.005684,0.004847
3.680000,9.719574,0.060296,1.171607,-0.025138,0.005031,0.003983
3.690000,9.764594,0.339729,1.177219,-0.025035,0.003380,0.003063
3.700000,9.795782,0.271423,1.189698,-0.024720,0.004011,0.003326
3.710000,9.803975,0.154788,1.189052,-0.024404,0.004642,0.003589
3.720000,9.826939,0.096492,1.193061,-0.024115,0.005036,0.003861
3.730000,9.834485,0.245705,1.188712,-0.024004,0.003816,0.004193
3.740000,9.582365,0.264812,1.090846,-0.023403,0.005346,0.004047
3.750000,9.681576,0.235852,1.174325,-0.024551,0.003913,0.004817
3.760000,9.902163,0.131038,1.173717,-0.023717,0.004673,0.004765
3.770000,9.856663,0.085321,1.182990,-0.024938,0.004752,0.004213
3.780000,9.668464,0.199291,1.175645,-0.024226,0.005385,0.005112
3.790000,9.699671,0.313477,1.190749,-0.023213,0.005063,0.005595
3.800000,9.789632,0.265084,1.191753,-0.023442,0.003093,0.004753
3.810000,9.729834,0.062599,1.180002,-0.024435,0.003892,0.003972
3.820000,9.761625,0.131628,1.223973,-0.024225,0.003050,0.003695
3.830000,9.843841,0.301036,1.218706,-0.023926,0.002826,0.002650
3.840000,9.770036,0.277914,1.161844,-0.023688,0.004176,0.003106
3.850000,9.689853,0.147718,1.198673,-0.023555,0.005140,0.003975
3.860000,9.827611,0.135296,1.183238,-0.023671,0.003072,0.004465
3.870000,9.827483,0.242066,1.164541,-0.024080,0.005833,0.003867
3.880000,9.675626,0.195868,1.153420,-0.023552,0.006150,0.004395
3.890000,9.679500,0.220144,1.187074,-0.024953,0.004529,0.005303
3.900000,9.814742,0.175797,1.221526,-0.024306,0.005816,0.005068
3.910000,9.795406,0.153982,1.231440,-0.023769,0.006420,0.004969
3.920000,9.702326,0.149594,1.225529,-0.023624,0.005619,0.005187
3.930000,9.696355,0.205930,1.188145,-0.023484,0.005073,0.005379
3.940000,9.690383,0.262266,1.150760,-0.023363,0.005195,0.005501
3.950000,9.703926,0.272400,1.139996,-0.023241,0.005317,0.005623
3.960000,9.723070,0.269275,1.136870,-0.023322,0.004742,0.005376
3.970000,9.742213,0.266149,1.133745,-0.023465,0.003960,0.005021
3.980000,9.774165,0.201548,1.219794,-0.024031,0.004690,0.004460
3.990000,9.735821,0.131982,1.212696,-0.024345,0.005706,0.004361
4.000000,9.774222,0.167607,1.198585,-0.024170,0.006115,0.004829
4.010000,9.812623,0.203233,1.184473,-0.023994,0.006525,0.005297
4.020000,9.668110,0.174234,1.168327,-0.024892,0.003651,0.005303
4.030000,9.796278,0.148485,1.184460,-0.023579,0.003406,0.004887
4.040000,9.916891,0.128901,1.242449,-0.024962,0.002818,0.004817
4.050000,9.786985,0.146989,1.159572,-0.025296,0.003152,0.004484
4.060000,9.643453,0.270290,1.203873,-0.024754,0.003994,0.004564
4.070000,9.829669,0.224916,1.174605,-0.023356,0.004284,0.004878
4.080000,9.812682,0.068960,1.190659,-0.023392,0.003952,0.004471
4.090000,9.679882,0.083738,1.157365,-0.023681,0.005330,0.004394
4.100000,9.727848,0.288044,1.158991,-0.023648,0.004519,0.004333
4.110000,9.762847,0.330982,1.139350,-0.024731,0.004878,0.003521
4.120000,9.751497,0.118231,1.219698,-0.023807,0.004621,0.003588
4.130000,9.792459,0.050763,1.204271,-0.023180,0.004754,0.004654
4.140000,9.733695,0.154540,1.144982,-0.023740,0.005654,0.004647
4.150000,9.659832,0.268671,1.087798,-0.024383,0.006589,0.004355
4.160000,9.601970,0.306870,1.105126,-0.024793,0.006950,0.004283
4.170000,9.649109,0.215971,1.210141,-0.024313,0.005126,0.005051
4.180000,9.787135,0.133166,1.208147,-0.023834,0.003692,0.004756
4.190000,9.691997,0.123477,1.145202,-0.023775,0.004783,0.004551
4.200000,9.613543,0.321057,1.193890,-0.023724,0.004492,0.005140
4.210000,9.685225,0.310558,1.190993,-0.024502,0.004123,0.004546
4.220000,9.851735,0.180190,1.161130,-0.025045,0.003967,0.003967
4.230000,9.827225,0.251817,1.169582,-0.025045,0.003616,0.003616
4.240000,9.802715,0.323444,1.178033,-0.025045,0.003264,0.003264
4.250000,9.748060,0.345635,1.143283,-0.025134,0.003454,0.003853
4.260000,9.710534,0.194535,1.158841,-0.025318,0.004369,0.005790
4.270000,9.787910,0.071738,1.201443,-0.024244,0.003684,0.005326
4.280000,9.881218,0.198276,1.223028,-0.023758,0.004516,0.004865
4.290000,9.738284,0.256546,1.171388,-0.023936,0.004868,0.003680
4.300000,9.599986,0.273631,1.147818,-0.023445,0.005399,0.003881
4.310000,9.733281,0.211656,1.178165,-0.024233,0.003167,0.004493
4.320000,9.788239,0.138800,1.178666,-0.024274,0.003567,0.004816
4.330000,9.755304,0.085281,1.187850,-0.023803,0.004568,0.005170
4.340000,9.772834,0.170918,1.198135,-0.023468,0.005382,0.005396
4.350000,9.798515,0.279034,1.208598,-0.024906,0.003752,0.003957
4.360000,9.778772,0.155655,1.113077,-0.023601,0.005225,0.004726
4.370000,9.721571,0.058855,1.189710,-0.023585,0.005864,0.004506
4.380000,9.757460,0.147008,1.229033,-0.024889,0.005019,0.003268
4.390000,9.798761,0.294175,1.203123,-0.023702,0.006115,0.004090
4.400000,9.708676,0.193225,1.165282,-0.023371,0.005351,0.004587
4.410000,9.722710,0.134859,1.232143,-0.023641,0.003282,0.004857
4.420000,9.790854,0.215268,1.200797,-0.024054,0.003591,0.003967
4.430000,9.809331,0.259437,1.180714,-0.024377,0.004100,0.003273
4.440000,9.731908,0.233629,1.182379,-0.023886,0.003904,0.005139
4.450000,9.689103,0.207574,1.177410,-0.023797,0.003189,0.005830
4.460000,9.800299,0.180422,1.142931,-0.024006,0.002799,0.005531
4.470000,9.732051,0.156399,1.180867,-0.024282,0.004672,0.004733
4.480000,9.671719,0.204609,1.181965,-0.024730,0.003678,0.003745
4.490000,9.703131,0.212186,1.133451,-0.023975,0.003031,0.004824
4.500000,9.747167,0.122298,1.113170,-0.024477,0.003377,0.003911
4.510000,9.735890,0.200507,1.111208,-0.025294,0.003971,0.002500
4.520000,9.724612,0.278715,1.109247,-0.024433,0.003741,0.003132
4.530000,9.729277,0.210844,1.134067,-0.023466,0.003480,0.004123
4.540000,9.737441,0.110911,1.164766,-0.023853,0.003945,0.004123
4.550000,9.781990,0.149945,1.166920,-0.024157,0.004611,0.004151
4.560000,9.827033,0.190866,1.168686,-0.024254,0.005778,0.004249
4.570000,9.640147,0.196706,1.179515,-0.024176,0.005581,0.004698
4.580000,9.668537,0.183656,1.183728,-0.023527,0.005104,0.005429
4.590000,9.819346,0.144565,1.209459,-0.022639,0.004749,0.006228
4.600000,9.895663,0.129417,1.232397,-0.023534,0.006288,0.005174
4.610000,9.673418,0.214925,1.193975,-0.024374,0.007445,0.004144
4.620000,9.691321,0.293130,1.109794,-0.024425,0.004893,0.005173
4.630000,9.924709,0.149300,1.221688,-0.023586,0.003033,0.005165
4.640000,9.742444,0.039215,1.167634,-0.024349,0.005889,0.004776
4.650000,9.650105,0.164866,1.217173,-0.024681,0.005616,0.004123
4.660000,9.688284,0.303019,1.144751,-0.024383,0.006212,0.004123
4.670000,9.777121,0.271771,1.174472,-0.023793,0.004703,0.004612
4.680000,9.734505,0.083620,1.194567,-0.023671,0.004688,0.004734
4.690000,9.761060,0.060414,1.239888,-0.024043,0.003957,0.003991
4.700000,9.680354,0.142351,1.208147,-0.024155,0.003773,0.004053
4.710000,9.599647,0.224289,1.176405,-0.023948,0.004445,0.004932
4.720000,9.614137,0.235911,1.161020,-0.023741,0.005117,0.005810
4.730000,9.683269,0.206263,1.154411,-0.023379,0.005679,0.006150
4.740000,9.789493,0.135884,1.145232,-0.022937,0.006184,0.006214
4.750000,9.721751,0.161643,1.189422,-0.023273,0.005938,0.005674
4.760000,9.613331,0.229368,1.228104,-0.024739,0.004583,0.004062
4.770000,9.627993,0.295778,1.167443,-0.024434,0.004972,0.004021
4.780000,9.642765,0.345230,1.118375,-0.024759,0.004827,0.004130
4.790000,9.658198,0.293362,1.138566,-0.025085,0.004683,0.004238
4.800000,9.673631,0.241494,1.158756,-0.025410,0.004538,0.004347
4.810000,9.689064,0.189626,1.178946,-0.025320,0.004516,0.004531
4.820000,9.704496,0.137758,1.199136,-0.023945,0.004875,0.004950
4.830000,9.719929,0.085890,1.219326,-0.022570,0.005234,0.005368
4.840000,9.761936,0.097427,1.218302,-0.022292,0.004901,0.005375
4.850000,9.804394,0.110041,1.216918,-0.022506,0.004258,0.005196
4.860000,9.846852,0.122655,1.215533,-0.022720,0.003615,0.005017
4.870000,9.888752,0.131667,1.214488,-0.022935,0.002972,0.004839
4.880000,9.912624,0.110389,1.217285,-0.023296,0.002779,0.004577
4.890000,9.768809,0.165519,1.226188,-0.023863,0.003220,0.004199
4.900000,9.677248,0.217638,1.219919,-0.024430,0.003662,0.003821
4.910000,9.696465,0.263379,1.181486,-0.024108,0.004752,0.003600
4.920000,9.706777,0.289806,1.152766,-0.023780,0.005849,0.003381
4.930000,9.643744,0.157155,1.204038,-0.023486,0.006269,0.003529
4.940000,9.733815,0.231301,1.153996,-0.023188,0.004759,0.004690
4.950000,9.825538,0.293476,1.185420,-0.023593,0.004354,0.004581
4.960000,9.826056,0.298431,1.187696,-0.024379,0.003360,0.004347
4.970000,9.806418,0.294246,1.172404,-0.023941,0.003360,0.003854
4.980000,9.786780,0.290061,1.157112,-0.023503,0.003360,0.003362
4.990000,9.759498,0.278104,1.146611,-0.024393,0.003873,0.003310
5.000000,9.672829,0.198200,1.179137,-0.024142,0.004303,0.004596
5.010000,9.697907,0.203892,1.163130,-0.023289,0.003844,0.004823
5.020000,9.722985,0.209583,1.147123,-0.022969,0.003950,0.004556
5.030000,9.748063,0.215275,1.131116,-0.022649,0.004057,0.004290
5.040000,9.647034,0.242353,1.190186,-0.023185,0.004071,0.004176
5.050000,9.861978,0.187537,1.211067,-0.024664,0.003856,0.004429
5.060000,9.883633,0.137264,1.224602,-0.024898,0.003585,0.004944
5.070000,9.786679,0.150053,1.209566,-0.024935,0.004106,0.005353
5.080000,9.689724,0.162842,1.194531,-0.024972,0.004626,0.005762
5.090000,9.622311,0.165288,1.189455,-0.025010,0.005147,0.006171
5.100000,9.671175,0.127024,1.223582,-0.025010,0.005640,0.006521
5.110000,9.720040,0.088760,1.257710,-0.023954,0.005323,0.005148
5.120000,9.840801,0.179897,1.184211,-0.024489,0.004465,0.002883
5.130000,9.706365,0.296837,1.162658,-0.023424,0.005474,0.003959
5.140000,9.646155,0.202988,1.161617,-0.023741,0.004973,0.004343
5.150000,9.785035,0.132103,1.185398,-0.023189,0.004525,0.004123
5.160000,9.885760,0.117327,1.168779,-0.023744,0.003466,0.004068
5.170000,9.667670,0.196439,1.167421,-0.023726,0.004977,0.003392
5.180000,9.604499,0.189161,1.186400,-0.025119,0.004276,0.003081
5.190000,9.629593,0.163807,1.197640,-0.024985,0.004276,0.003380
5.200000,9.654686,0.138452,1.208880,-0.024852,0.004276,0.003680
5.210000,9.679779,0.113098,1.220119,-0.024719,0.004276,0.003980
5.220000,9.690550,0.147088,1.201640,-0.024574,0.004267,0.004276
5.230000,9.796605,0.339822,1.161598,-0.023326,0.003435,0.004276
5.240000,9.755831,0.184618,1.207305,-0.023246,0.002624,0.004153
5.250000,9.739603,0.097284,1.236444,-0.023833,0.002258,0.003971
5.260000,9.793968,0.205149,1.217936,-0.023095,0.003660,0.003971
5.270000,9.806911,0.290259,1.196737,-0.022734,0.004901,0.003985
5.280000,9.640336,0.276753,1.163872,-0.025020,0.005015,0.004099
5.290000,9.618753,0.220155,1.184872,-0.024721,0.004173,0.004797
5.300000,9.634860,0.187741,1.172543,-0.024184,0.004808,0.004992
5.310000,9.650968,0.155328,1.160214,-0.023647,0.005443,0.005187
5.320000,9.638630,0.226055,1.171009,-0.023707,0.005462,0.004752
5.330000,9.754540,0.258297,1.163661,-0.024242,0.004628,0.003612
5.340000,9.841409,0.182857,1.169390,-0.023778,0.005230,0.004260
5.350000,9.781768,0.093938,1.191122,-0.023975,0.006789,0.004657
5.360000,9.711334,0.166036,1.174053,-0.023746,0.007736,0.005360
5.370000,9.817026,0.302969,1.185970,-0.023632,0.004685,0.003671
5.380000,9.704004,0.258077,1.126340,-0.023217,0.003973,0.004116
5.390000,9.681560,0.107224,1.200573,-0.024822,0.003548,0.003675
5.400000,9.732871,0.112495,1.176675,-0.023563,0.004177,0.003855
5.410000,9.843195,0.232939,1.208939,-0.024922,0.003250,0.003037
5.420000,9.683779,0.235477,1.162467,-0.024718,0.006241,0.004452
5.430000,9.644377,0.238019,1.217121,-0.023308,0.004181,0.005211
5.440000,9.753984,0.208693,1.203515,-0.023402,0.004312,0.005155
5.450000,9.882433,0.175337,1.181278,-0.023818,0.004913,0.004924
5.460000,9.884459,0.185059,1.179048,-0.024234,0.005513,0.004693
5.470000,9.862651,0.202902,1.180590,-0.023844,0.005677,0.004497
5.480000,9.844003,0.215630,1.182336,-0.022699,0.005431,0.004334
5.490000,9.838693,0.189131,1.184967,-0.022132,0.005304,0.004153
5.500000,9.793501,0.150206,1.185132,-0.021879,0.005241,0.003963
5.510000,9.748309,0.111281,1.185297,-0.021626,0.005177,0.003773
5.520000,9.703117,0.072357,1.185462,-0.021372,0.005114,0.003583
5.530000,9.697589,0.080578,1.199763,-0.021119,0.005051,0.003393
5.540000,9.743689,0.146503,1.211657,-0.022533,0.004878,0.002955
5.550000,9.816006,0.238790,1.205605,-0.023902,0.005047,0.002870
5.560000,9.687516,0.216729,1.127536,-0.023839,0.005328,0.003834
5.570000,9.698175,0.164504,1.225058,-0.022520,0.002469,0.004604
5.580000,9.801958,0.132913,1.188637,-0.023104,0.002793,0.004411
5.590000,9.798892,0.124524,1.164376,-0.024076,0.003765,0.004022
5.600000,9.698052,0.135752,1.156114,-0.024471,0.003542,0.004204
5.610000,9.597212,0.146980,1.147852,-0.024227,0.001994,0.005019
5.620000,9.821983,0.155999,1.193127,-0.024129,0.002525,0.004748
5.630000,9.718202,0.076245,1.199468,-0.024129,0.004445,0.003753
5.640000,9.674690,0.168715,1.161191,-0.024464,0.004883,0.003207
5.650000,9.698285,0.299544,1.139596,-0.024854,0.004125,0.003553
5.660000,9.791700,0.332862,1.173056,-0.023969,0.005540,0.005145
5.670000,9.728367,0.197153,1.139505,-0.023518,0.006057,0.005056
5.680000,9.764815,0.066397,1.229049,-0.023518,0.005640,0.003222
5.690000,9.794846,0.126203,1.187224,-0.023646,0.005200,0.003192
5.700000,9.750292,0.160181,1.181149,-0.023840,0.004748,0.004096
5.710000,9.705738,0.194159,1.175073,-0.023771,0.003935,0.004693
5.720000,9.925152,0.066081,1.206326,-0.023346,0.002692,0.004562
5.730000,9.892031,0.132323,1.167863,-0.024013,0.003168,0.004467
5.740000,9.588548,0.235205,1.139694,-0.023956,0.005376,0.002576
5.750000,9.713807,0.295244,1.171861,-0.024909,0.004420,0.003698
5.760000,9.862532,0.176030,1.201760,-0.024432,0.004366,0.004420
5.770000,9.834114,0.060014,1.151854,-0.022802,0.006576,0.004640
5.780000,9.737514,0.077186,1.235958,-0.023684,0.006885,0.003240
5.790000,9.696697,0.251311,1.130441,-0.024239,0.007440,0.003351
5.800000,9.721636,0.313045,1.139643,-0.023602,0.005172,0.002816
5.810000,9.689656,0.171579,1.123447,-0.023909,0.005513,0.002983
5.820000,9.865432,0.100797,1.185971,-0.023768,0.006314,0.003979
5.830000,9.817594,0.289882,1.163008,-0.023652,0.005950,0.003831
5.840000,9.598821,0.247982,1.156436,-0.024743,0.003308,0.003381
5.850000,9.675108,0.241693,1.160443,-0.023566,0.003432,0.005217
5.860000,9.894211,0.109504,1.252039,-0.023901,0.002576,0.005498
5.870000,9.834430,0.103706,1.128718,-0.023112,0.006044,0.006218
5.880000,9.676591,0.134332,1.207873,-0.023978,0.004999,0.004769
5.890000,9.655228,0.337086,1.106044,-0.023854,0.004581,0.004704
5.900000,9.821413,0.203526,1.170662,-0.023910,0.003329,0.003754
5.910000,9.746688,0.038619,1.137646,-0.024083,0.005769,0.003230
5.920000,9.778229,0.173985,1.195394,-0.023749,0.003820,0.002974
5.930000,9.779758,0.318553,1.163379,-0.023870,0.004337,0.003031
5.940000,9.749331,0.325790,1.160321,-0.023689,0.004728,0.004112
5.950000,9.731612,0.169510,1.169534,-0.024580,0.004431,0.003517
5.960000,9.839403,0.152316,1.217900,-0.024978,0.003470,0.003879
5.970000,9.808374,0.207639,1.156453,-0.024556,0.003623,0.004970
5.980000,9.709954,0.226835,1.160530,-0.023694,0.006638,0.005573
5.990000,9.718537,0.223710,1.139924,-0.022796,0.004190,0.004583
6.000000,9.877876,0.189554,1.212829,-0.024273,0.003304,0.003206
6.010000,9.736379,0.109959,1.141176,-0.024605,0.004486,0.003054
6.020000,9.745560,0.171964,1.132639,-0.024740,0.005360,0.003215
6.030000,9.816442,0.264309,1.153272,-0.024740,0.004894,0.003759
6.040000,9.832394,0.226329,1.159728,-0.024449,0.004824,0.003929
6.050000,9.799525,0.206651,1.156682,-0.023752,0.004937,0.003657
6.060000,9.722846,0.203396,1.145108,-0.023506,0.003546,0.004147
6.070000,9.818060,0.292037,1.219349,-0.023774,0.003975,0.004338
6.080000,9.711720,0.153856,1.198593,-0.024733,0.006852,0.004125
6.090000,9.732618,0.116671,1.209836,-0.023976,0.003841,0.003443
6.100000,9.779302,0.179254,1.144324,-0.023976,0.004417,0.002784
6.110000,9.761484,0.263223,1.166705,-0.023458,0.004581,0.004066
6.120000,9.670580,0.191557,1.162402,-0.022787,0.003899,0.005533
6.130000,9.818241,0.145769,1.207176,-0.022921,0.002919,0.005214
6.140000,9.885887,0.154853,1.180234,-0.023967,0.003478,0.003940
6.150000,9.811377,0.211695,1.148096,-0.024757,0.004350,0.003443
6.160000,9.647340,0.277465,1.137263,-0.024827,0.002723,0.003797
6.170000,9.835804,0.233516,1.222802,-0.024844,0.001504,0.004153
6.180000,9.839785,0.079258,1.122914,-0.024213,0.005162,0.004531
6.190000,9.750523,0.268373,1.115728,-0.024049,0.005651,0.004020
6.200000,9.703075,0.322681,1.117418,-0.023816,0.005651,0.003693
6.210000,9.703614,0.222275,1.129293,-0.023073,0.005651,0.004529
6.220000,9.725179,0.110888,1.169767,-0.023531,0.004098,0.004111
6.230000,9.818101,0.091860,1.206083,-0.024502,0.002926,0.003415
6.240000,9.790223,0.267464,1.162465,-0.024618,0.004171,0.003458
6.250000,9.677663,0.296908,1.153498,-0.023851,0.005113,0.003823
6.260000,9.603160,0.238451,1.155195,-0.023413,0.004748,0.004553
6.270000,9.703684,0.186045,1.143284,-0.023088,0.004915,0.004929
6.280000,9.804208,0.133639,1.131374,-0.022857,0.005529,0.005005
6.290000,9.633162,0.188581,1.197459,-0.025045,0.003362,0.004581
6.300000,9.626953,0.358732,1.099915,-0.025028,0.005157,0.003674
6.310000,9.799301,0.274499,1.199286,-0.024236,0.003574,0.004070
6.320000,9.794803,0.005056,1.168083,-0.023642,0.007207,0.004741
6.330000,9.735516,0.121075,1.212799,-0.023242,0.004711,0.004478
6.340000,9.745140,0.339831,1.150013,-0.024230,0.004588,0.002254
6.350000,9.717644,0.335113,1.150517,-0.023366,0.005173,0.003035
6.360000,9.661849,0.121677,1.167390,-0.024220,0.005067,0.002928
6.370000,9.726965,0.074240,1.194127,-0.024435,0.004594,0.004015
6.380000,9.873162,0.157768,1.210904,-0.024043,0.005004,0.005421
6.390000,9.678683,0.279202,1.141554,-0.022727,0.007645,0.006111
6.400000,9.650964,0.245947,1.167006,-0.023268,0.005050,0.005462
6.410000,9.781664,0.198636,1.163285,-0.024661,0.005100,0.004309
6.420000,9.798773,0.072673,1.152658,-0.023627,0.003530,0.004370
6.430000,9.662613,0.218179,1.205396,-0.023221,0.006544,0.003818
6.440000,9.707067,0.306451,1.146727,-0.024129,0.004646,0.003818
6.450000,9.723667,0.196136,1.139844,-0.023919,0.005197,0.003555
6.460000,9.719821,-0.016473,1.167119,-0.023562,0.005465,0.003109
6.470000,9.755309,0.146313,1.181114,-0.023966,0.004243,0.003144
6.480000,9.805207,0.299900,1.180160,-0.023158,0.005072,0.002814
6.490000,9.697946,0.269775,1.145516,-0.024320,0.004984,0.003637
6.500000,9.694332,0.122670,1.185117,-0.023801,0.003270,0.003535
6.510000,9.808039,0.183232,1.179331,-0.023709,0.005397,0.003628
6.520000,9.839189,0.234495,1.186248,-0.022824,0.004538,0.004224
6.530000,9.719429,0.229231,1.130975,-0.023345,0.003719,0.004820
6.540000,9.680077,0.207958,1.221013,-0.024193,0.003451,0.004879
6.550000,9.856996,0.179082,1.164889,-0.025586,0.004101,0.004043
6.560000,9.694388,0.114659,1.168621,-0.025032,0.005020,0.004190
6.570000,9.626804,0.193887,1.173379,-0.024622,0.004983,0.004709
6.580000,9.712053,0.248841,1.190685,-0.024974,0.004015,0.005238
6.590000,9.847629,0.197375,1.178119,-0.024660,0.004281,0.005345
6.600000,9.778346,0.200961,1.127930,-0.024304,0.004886,0.005356
6.610000,9.668702,0.260821,1.115887,-0.024402,0.005577,0.005405
6.620000,9.695294,0.238331,1.120385,-0.024501,0.006268,0.005455
6.630000,9.721885,0.215840,1.124883,-0.024545,0.006815,0.005420
6.640000,9.748477,0.193350,1.129381,-0.024204,0.006361,0.004795
6.650000,9.775069,0.170859,1.133879,-0.023863,0.005906,0.004170
6.660000,9.724097,0.283159,1.148885,-0.023931,0.005521,0.004337
6.670000,9.656043,0.195281,1.152957,-0.024078,0.004580,0.005244
6.680000,9.751556,0.162442,1.210846,-0.023628,0.003300,0.005533
6.690000,9.896043,0.092542,1.242087,-0.023396,0.004633,0.004895
6.700000,9.929142,0.102237,1.248220,-0.023165,0.005966,0.004258
6.710000,9.919164,0.142715,1.244642,-0.023190,0.005559,0.004166
6.720000,9.909186,0.183192,1.241065,-0.023427,0.003724,0.004521
6.730000,9.880592,0.140659,1.195983,-0.023664,0.001890,0.004876
6.740000,9.830017,0.036079,1.125558,-0.023485,0.003325,0.004514
6.750000,9.680859,0.069768,1.215747,-0.023713,0.005550,0.003581
6.760000,9.692493,0.089001,1.195802,-0.023878,0.006119,0.003632
6.770000,9.704128,0.108234,1.175857,-0.023940,0.006305,0.003941
6.780000,9.766474,0.071200,1.194188,-0.024365,0.005948,0.004822
6.790000,9.857695,0.154878,1.190664,-0.024652,0.004702,0.005233
6.800000,9.708244,0.357466,1.103761,-0.024389,0.004322,0.005040
6.810000,9.631044,0.233685,1.160892,-0.024166,0.004376,0.005152
6.820000,9.828465,0.136511,1.227314,-0.024308,0.003597,0.005577
6.830000,9.957928,0.064945,1.256838,-0.024435,0.002964,0.005930
6.840000,9.794289,0.104138,1.128416,-0.024435,0.003538,0.005694
6.850000,9.786520,0.101711,1.147960,-0.024435,0.004113,0.005457
6.860000,9.778751,0.099283,1.167504,-0.024435,0.004687,0.005221
6.870000,9.770982,0.096855,1.187048,-0.024435,0.005262,0.004984
6.880000,9.763213,0.094427,1.206591,-0.024299,0.005407,0.004479
6.890000,9.758911,0.108460,1.218856,-0.024068,0.005253,0.003787
6.900000,9.791444,0.297360,1.153791,-0.023723,0.005952,0.003766
6.910000,9.722817,0.396493,1.122422,-0.023624,0.006014,0.003711
6.920000,9.733214,0.379893,1.124662,-0.023569,0.005905,0.003589
6.930000,9.743611,0.363292,1.126902,-0.023515,0.005797,0.003467
6.940000,9.754008,0.346691,1.129142,-0.023461,0.005689,0.003345
6.950000,9.764405,0.330091,1.131383,-0.023407,0.005580,0.003223
6.960000,9.774802,0.313490,1.133623,-0.023353,0.005472,0.003101
6.970000,9.785199,0.296889,1.135863,-0.023298,0.005363,0.002979
6.980000,9.795596,0.280289,1.138103,-0.023244,0.005255,0.002857
6.990000,9.805993,0.263688,1.140343,-0.023190,0.005146,0.002735
7.000000,9.816390,0.247088,1.142584,-0.023136,0.005038,0.002614
7.010000,9.826442,0.229963,1.144932,-0.023082,0.004930,0.002492
7.020000,9.696614,0.030034,1.185396,-0.023146,0.004801,0.003307
7.030000,9.765092,0.205015,1.176962,-0.023556,0.005077,0.004123
7.040000,9.859036,0.293201,1.215041,-0.024197,0.005718,0.004408
7.050000,9.749474,0.288925,1.124185,-0.024562,0.005671,0.004762
7.060000,9.795764,0.276212,1.149655,-0.024496,0.004552,0.005222
7.070000,9.854881,0.262804,1.184698,-0.024433,0.003521,0.005642
7.080000,9.783249,0.232094,1.200356,-0.024413,0.003644,0.005519
7.090000,9.706034,0.200645,1.215185,-0.024392,0.003767,0.005396
7.100000,9.695297,0.181241,1.208608,-0.024372,0.003890,0.005273
7.110000,9.725785,0.169306,1.188755,-0.024351,0.004013,0.005150
7.120000,9.756273,0.157370,1.168902,-0.024331,0.004136,0.005027
7.130000,9.786761,0.145435,1.149049,-0.024310,0.004259,0.004904
7.140000,9.817249,0.133500,1.129196,-0.024290,0.004382,0.004781
7.150000,9.775238,0.106794,1.150896,-0.024092,0.005576,0.004774
7.160000,9.674004,0.068024,1.206539,-0.023619,0.004629,0.004111
7.170000,9.788866,0.327053,1.186332,-0.024023,0.004725,0.003768
7.180000,9.760043,0.197002,1.152248,-0.023824,0.005790,0.004866
7.190000,9.744972,0.102670,1.202729,-0.024606,0.004208,0.005388
7.200000,9.754759,0.090009,1.216505,-0.024823,0.002906,0.005597
7.210000,9.772453,0.115813,1.196414,-0.024426,0.002641,0.005773
7.220000,9.790147,0.141617,1.176324,-0.024028,0.002376,0.005950
7.230000,9.781958,0.175121,1.167039,-0.023699,0.002147,0.006063
7.240000,9.779556,0.189290,1.151808,-0.023969,0.002237,0.005612
7.250000,9.777918,0.175968,1.126581,-0.023841,0.004309,0.005129
7.260000,9.596871,0.212885,1.164403,-0.024104,0.006347,0.004667
7.270000,9.631126,0.322219,1.111398,-0.024723,0.005836,0.004378
7.280000,9.821833,0.232910,1.202266,-0.024681,0.005170,0.004253
7.290000,9.852492,0.236348,1.207016,-0.024640,0.004504,0.004128
7.300000,9.772436,0.303944,1.152192,-0.024598,0.003838,0.004003
7.310000,9.760152,0.362577,1.155013,-0.024587,0.005261,0.004077
7.320000,9.720538,0.210668,1.167456,-0.024343,0.005102,0.004367
7.330000,9.758093,0.051670,1.200076,-0.024129,0.005234,0.005168
7.340000,9.869673,0.131745,1.216357,-0.023903,0.005418,0.004820
7.350000,9.685703,0.319261,1.099238,-0.023561,0.006945,0.004581
7.360000,9.610495,0.269913,1.155561,-0.023683,0.005697,0.004581
7.370000,9.759663,0.194333,1.165532,-0.023979,0.004429,0.005204
7.380000,9.987072,0.060764,1.236592,-0.023399,0.003419,0.006107
7.390000,9.739982,0.099644,1.149547,-0.023870,0.007497,0.004123
7.400000,9.623509,0.217865,1.210497,-0.024160,0.004257,0.004185
7.410000,9.706304,0.221974,1.198787,-0.024317,0.004935,0.004498
7.420000,9.789099,0.226083,1.187077,-0.024473,0.005614,0.004811
7.430000,9.728242,-0.028155,1.175034,-0.024638,0.005836,0.004852
7.440000,9.741987,0.073648,1.204243,-0.024828,0.004827,0.004158
7.450000,9.812075,0.252294,1.189970,-0.025017,0.003817,0.003464
7.460000,9.733348,0.328902,1.111564,-0.024318,0.004276,0.004683
7.470000,9.710669,0.106959,1.170454,-0.024043,0.004447,0.005859
7.480000,9.842949,0.156048,1.200935,-0.024145,0.003741,0.005673
7.490000,9.783131,0.221205,1.145952,-0.024175,0.002735,0.004926
7.500000,9.659674,0.248256,1.130266,-0.023988,0.002171,0.004457
7.510000,9.679748,0.229365,1.181584,-0.023976,0.002758,0.004429
7.520000,9.766566,0.191604,1.153455,-0.023976,0.003417,0.004429
7.530000,9.723605,0.080866,1.150411,-0.024075,0.003883,0.004494
7.540000,9.680850,0.185504,1.180790,-0.024326,0.004051,0.004662
7.550000,9.693471,0.239408,1.175251,-0.024226,0.004749,0.004818
7.560000,9.773878,0.231210,1.125745,-0.023860,0.005849,0.004964
7.570000,9.703680,0.058624,1.205085,-0.024460,0.004150,0.004506
7.580000,9.809564,0.215091,1.233074,-0.024525,0.003822,0.004309
7.590000,9.821197,0.270998,1.208257,-0.024587,0.003700,0.004233
7.600000,9.755501,0.228111,1.156558,-0.024440,0.004609,0.005438
7.610000,9.725200,0.104113,1.239816,-0.024144,0.003131,0.005930
7.620000,9.722325,0.144781,1.169572,-0.024561,0.004243,0.005524
7.630000,9.749437,0.255582,1.149523,-0.024509,0.005370,0.005461
7.640000,9.660351,0.222362,1.120406,-0.024129,0.006414,0.005650
7.650000,9.733978,0.212366,1.133862,-0.024078,0.006156,0.005032
7.660000,9.807604,0.202370,1.147319,-0.024026,0.005899,0.004413
7.670000,9.804961,0.182216,1.165914,-0.023954,0.005651,0.003874
7.680000,9.642186,0.262145,1.154134,-0.023370,0.005641,0.005345
7.690000,9.777510,0.208940,1.201941,-0.024352,0.003580,0.005345
7.700000,9.811851,0.125363,1.122775,-0.023726,0.006368,0.003989
7.710000,9.731893,0.224030,1.110706,-0.024043,0.006104,0.004095
7.720000,9.707157,0.304144,1.122039,-0.024360,0.005840,0.004200
7.730000,9.829849,0.315944,1.190852,-0.024242,0.003926,0.004506
7.740000,9.770878,0.152281,1.135657,-0.023736,0.003851,0.004581
7.750000,9.766495,0.061661,1.222341,-0.023967,0.003989,0.004447
7.760000,9.798350,0.129482,1.160685,-0.024868,0.003719,0.004177
7.770000,9.720616,0.300427,1.143068,-0.025000,0.004537,0.004581
7.780000,9.583691,0.233709,1.133475,-0.023569,0.006849,0.004581
7.790000,9.920438,0.081658,1.233137,-0.023363,0.004519,0.005064
7.800000,9.899146,0.130275,1.195698,-0.023205,0.004576,0.004856
7.810000,9.712802,0.189250,1.175373,-0.023064,0.005275,0.004578
7.820000,9.604846,0.344636,1.107595,-0.023711,0.005458,0.004329
7.830000,9.866788,0.200475,1.194050,-0.024573,0.001591,0.004729
7.840000,9.798683,0.067180,1.141116,-0.023976,0.006043,0.004076
7.850000,9.678262,0.111641,1.220698,-0.024316,0.002855,0.003190
7.860000,9.707886,0.314445,1.181491,-0.026161,0.003465,0.002279
7.870000,9.776572,0.305004,1.195700,-0.023267,0.003564,0.003846
7.880000,9.718037,0.125393,1.201174,-0.023567,0.004471,0.003872
7.890000,9.805734,0.085171,1.198661,-0.023807,0.002979,0.003950
7.900000,9.855447,0.168744,1.149311,-0.025114,0.003634,0.003107
7.910000,9.813819,0.282711,1.132591,-0.025295,0.004359,0.003651
7.920000,9.593237,0.242340,1.131047,-0.024056,0.004064,0.004400
7.930000,9.704107,0.197086,1.168259,-0.022430,0.003234,0.005109
7.940000,9.929782,0.102247,1.218079,-0.024771,0.001325,0.003696
7.950000,9.802747,0.128457,1.203679,-0.024862,0.004348,0.004123
7.960000,9.703222,0.150296,1.226415,-0.024393,0.003599,0.004123
7.970000,9.772087,0.198250,1.195468,-0.023925,0.002850,0.004123
7.980000,9.808526,0.213650,1.172982,-0.023671,0.004395,0.003889
7.990000,9.726354,0.109965,1.181446,-0.023527,0.004824,0.003665
8.000000,9.717795,0.150823,1.160871,-0.023938,0.003255,0.003522
8.010000,9.807540,0.292672,1.164736,-0.025140,0.003282,0.003197
8.020000,9.775018,0.230482,1.203908,-0.024839,0.002880,0.003147
8.030000,9.705088,0.137787,1.210302,-0.024537,0.002478,0.003097
8.040000,9.772635,0.224589,1.175266,-0.024223,0.002493,0.003330
8.050000,9.710422,0.239042,1.165823,-0.023839,0.004793,0.005119
8.060000,9.629178,0.206296,1.172607,-0.023518,0.005551,0.004648
8.070000,9.704503,0.188607,1.173910,-0.023518,0.004141,0.004432
8.080000,9.861758,0.139464,1.186763,-0.023317,0.004627,0.004177
8.090000,9.816979,0.184043,1.175487,-0.023113,0.005138,0.003922
8.100000,9.711657,0.256708,1.156980,-0.022908,0.005648,0.003666
8.110000,9.836048,0.223798,1.205431,-0.024129,0.003129,0.003359
8.120000,9.785368,0.149706,1.163238,-0.023088,0.004497,0.002821
8.130000,9.690545,0.117888,1.168713,-0.022769,0.006433,0.002952
8.140000,9.675263,0.144865,1.209215,-0.023720,0.005551,0.003359
8.150000,9.806241,0.236309,1.219174,-0.024249,0.005258,0.003665
8.160000,9.798004,0.200097,1.184212,-0.023646,0.006389,0.003690
8.170000,9.738667,0.134652,1.180149,-0.023536,0.006280,0.003800
8.180000,9.733285,0.123254,1.205794,-0.023427,0.006170,0.003909
8.190000,9.722165,0.287897,1.119847,-0.023701,0.005438,0.004105
8.200000,9.630916,0.190772,1.150535,-0.023788,0.004923,0.004958
8.210000,9.842391,0.114138,1.209724,-0.023854,0.004857,0.004826
8.220000,9.865866,0.169419,1.183045,-0.024205,0.004276,0.003742
8.230000,9.765022,0.242150,1.146922,-0.023885,0.004367,0.004046
8.240000,9.676785,0.279506,1.122769,-0.023720,0.004533,0.004460
8.250000,9.859830,0.160317,1.178900,-0.024040,0.002919,0.004397
8.260000,9.800928,0.082775,1.122894,-0.024498,0.004538,0.004384
8.270000,9.681373,0.100723,1.158798,-0.024067,0.004870,0.003995
8.280000,9.675719,0.167899,1.185564,-0.023579,0.004061,0.003450
8.290000,9.794633,0.281393,1.190645,-0.023352,0.003531,0.002920
8.300000,9.753430,0.133965,1.189417,-0.022844,0.005181,0.003911
8.310000,9.775899,0.090569,1.228144,-0.024500,0.003014,0.004457
8.320000,9.831444,0.163421,1.155704,-0.023883,0.003808,0.003575
8.330000,9.709355,0.311458,1.124677,-0.023833,0.004861,0.003279
8.340000,9.592429,0.240564,1.145598,-0.024546,0.006178,0.003841
8.350000,9.819418,0.120054,1.185228,-0.024066,0.003119,0.004581
8.360000,9.939101,0.114769,1.192086,-0.024662,0.003247,0.004467
8.370000,9.766746,0.175469,1.192944,-0.023533,0.004618,0.004225
8.380000,9.619086,0.242076,1.179357,-0.024109,0.004930,0.003774
8.390000,9.656867,0.302917,1.163739,-0.024609,0.004095,0.003442
8.400000,9.837728,0.116414,1.167319,-0.024529,0.003936,0.003278
8.410000,9.718422,0.061439,1.192472,-0.024632,0.004537,0.003207
8.420000,9.677039,0.234987,1.162811,-0.024252,0.005028,0.003319
8.430000,9.776902,0.325433,1.177760,-0.023856,0.004738,0.002905
8.440000,9.739209,0.232050,1.116875,-0.022613,0.005494,0.003817
8.450000,9.744132,0.158748,1.170209,-0.023238,0.005286,0.003747
8.460000,9.749055,0.085447,1.223544,-0.023862,0.005078,0.003678
8.470000,9.796821,0.263578,1.166109,-0.023543,0.003911,0.004941
8.480000,9.595239,0.264036,1.139140,-0.023659,0.005076,0.004475
8.490000,9.585021,0.204091,1.188827,-0.024486,0.004275,0.004735
8.500000,9.619990,0.179975,1.184865,-0.024572,0.003818,0.004654
8.510000,9.654958,0.155858,1.180903,-0.023990,0.003818,0.004231
8.520000,9.689927,0.131742,1.176941,-0.023409,0.003818,0.003808
8.530000,9.737921,0.255815,1.145738,-0.023408,0.003623,0.003763
8.540000,9.810702,0.209654,1.123711,-0.023322,0.004395,0.004210
8.550000,9.683348,0.071517,1.154666,-0.024325,0.004442,0.002649
8.560000,9.655498,0.137561,1.175147,-0.024438,0.004125,0.002741
8.570000,9.765423,0.244873,1.181068,-0.023950,0.004201,0.003640
8.580000,9.810989,0.279520,1.177660,-0.023163,0.005213,0.004203
8.590000,9.774836,0.257596,1.173519,-0.023556,0.004849,0.004152
8.600000,9.734769,0.184748,1.165627,-0.024126,0.004279,0.004010
8.610000,9.713908,0.184735,1.142690,-0.024696,0.003709,0.003867
8.620000,9.724474,0.256849,1.111507,-0.024681,0.003851,0.003987
8.630000,9.748773,0.219635,1.125736,-0.024358,0.004369,0.004246
8.640000,9.773072,0.182421,1.139965,-0.023977,0.004049,0.004239
8.650000,9.905736,0.153776,1.193595,-0.023570,0.002600,0.003537
8.660000,9.719700,0.169270,1.159365,-0.023669,0.005444,0.003212
8.670000,9.758270,0.183296,1.154924,-0.023313,0.004969,0.003924
8.680000,9.796841,0.197322,1.150483,-0.022957,0.004494,0.004636
8.690000,9.766838,0.115423,1.155903,-0.024703,0.005010,0.003641
8.700000,9.628022,0.184117,1.149738,-0.023787,0.004634,0.003656
8.710000,9.723443,0.253703,1.129431,-0.023694,0.002785,0.003818
8.720000,9.851532,0.268399,1.185287,-0.024284,0.002829,0.003933
8.730000,9.766867,0.076620,1.196309,-0.024294,0.004040,0.003548
8.740000,9.693057,0.126853,1.209102,-0.024431,0.003825,0.003960
8.750000,9.787442,0.239832,1.169712,-0.024135,0.001286,0.003983
8.760000,9.703295,0.298121,1.137280,-0.024249,0.002480,0.004210
8.770000,9.710083,0.219376,1.153522,-0.024363,0.003674,0.004438
8.780000,9.735787,0.121735,1.180839,-0.024127,0.003402,0.005197
8.790000,9.692450,0.188459,1.177171,-0.024048,0.003406,0.004849
8.800000,9.649114,0.255184,1.173502,-0.024136,0.004021,0.004059
8.810000,9.647859,0.280715,1.155357,-0.024224,0.004635,0.003269
8.820000,9.684507,0.269141,1.124174,-0.024326,0.004158,0.002925
8.830000,9.720494,0.178153,1.130843,-0.024390,0.002162,0.003371
8.840000,9.746409,0.091190,1.148465,-0.024109,0.003290,0.003441
8.850000,9.710086,0.287244,1.113456,-0.023827,0.004417,0.003512
8.860000,9.716269,0.266254,1.124826,-0.023278,0.004156,0.003786
8.870000,9.735359,0.179363,1.150279,-0.023052,0.004144,0.004130
8.880000,9.752119,0.097210,1.174257,-0.023491,0.004670,0.004612
8.890000,9.710381,0.134009,1.161194,-0.023929,0.005197,0.005095
8.900000,9.668644,0.170808,1.148131,-0.024368,0.005723,0.005577
8.910000,9.626907,0.207607,1.135068,-0.024213,0.005194,0.005651
8.920000,9.662910,0.198870,1.142317,-0.023952,0.004476,0.005651
8.930000,9.899115,0.072867,1.201875,-0.023624,0.003923,0.005050
8.940000,9.779795,0.169380,1.196197,-0.023946,0.005620,0.004795
8.950000,9.650436,0.243200,1.172682,-0.024341,0.005592,0.004664
8.960000,9.735085,0.257364,1.160802,-0.024207,0.005223,0.004999
8.970000,9.831720,0.203989,1.168301,-0.024331,0.003685,0.004411
8.980000,9.781989,0.232184,1.151428,-0.024000,0.004236,0.004356
8.990000,9.732258,0.260380,1.134555,-0.023670,0.004787,0.004301
9.000000,9.780179,0.307434,1.161627,-0.023756,0.004802,0.004229
9.010000,9.742115,0.236656,1.160731,-0.024195,0.004363,0.004141
9.020000,9.704923,0.122960,1.226909,-0.023925,0.004734,0.004429
9.030000,9.688425,0.138595,1.221707,-0.023525,0.004499,0.005071
9.040000,9.666086,0.165278,1.199678,-0.023723,0.004776,0.005111
9.050000,9.643746,0.191961,1.177649,-0.023921,0.005054,0.005151
9.060000,9.627874,0.215986,1.156405,-0.024119,0.005331,0.005190
9.070000,9.852846,0.140995,1.164404,-0.024486,0.003444,0.004004
9.080000,9.841912,0.170118,1.153816,-0.024121,0.005282,0.004109
9.090000,9.775199,0.217554,1.158364,-0.023957,0.004081,0.003836
9.100000,9.708486,0.264990,1.162913,-0.023793,0.002879,0.003563
9.110000,9.783312,0.255252,1.185672,-0.023704,0.002583,0.003376
9.120000,9.722717,0.135466,1.100490,-0.023834,0.004920,0.003441
9.130000,9.652780,0.096098,1.181542,-0.023964,0.007257,0.003506
9.140000,9.687941,0.179592,1.160172,-0.024282,0.004544,0.004393
9.150000,9.709749,0.213012,1.140159,-0.024282,0.005708,0.004548
9.160000,9.694906,0.140185,1.192629,-0.024190,0.005311,0.004858
9.170000,9.786542,0.154120,1.188894,-0.024073,0.004944,0.005002
9.180000,9.841579,0.162157,1.178482,-0.023955,0.005061,0.004924
9.190000,9.857190,0.152668,1.185217,-0.023838,0.005178,0.004846
9.200000,9.872802,0.143179,1.191951,-0.023721,0.005295,0.004768
9.210000,9.888414,0.133689,1.198685,-0.023671,0.005345,0.004546
9.220000,9.831603,0.170455,1.156430,-0.023730,0.005463,0.004429
9.230000,9.718172,0.181901,1.158880,-0.023822,0.005647,0.004429
9.240000,9.745793,0.257124,1.155472,-0.024618,0.004810,0.005803
9.250000,9.880879,0.201203,1.196570,-0.024763,0.005896,0.005080
9.260000,9.938731,0.175303,1.214072,-0.024890,0.006822,0.004426
9.270000,9.918221,0.179860,1.207632,-0.024864,0.006326,0.004400
9.280000,9.897711,0.184418,1.201191,-0.024838,0.005830,0.004374
9.290000,9.877201,0.188976,1.194751,-0.024812,0.005334,0.004348
9.300000,9.856691,0.193534,1.188311,-0.024786,0.004838,0.004322
9.310000,9.836181,0.198091,1.181870,-0.024760,0.004342,0.004296
9.320000,9.809420,0.190068,1.174099,-0.024757,0.003887,0.004493
9.330000,9.775123,0.166874,1.164723,-0.024823,0.003555,0.005358
9.340000,9.748014,0.142769,1.158214,-0.024890,0.003222,0.006223
9.350000,9.959473,0.092752,1.244809,-0.024190,0.002504,0.004996
9.360000,9.765953,0.169760,1.133298,-0.024362,0.003298,0.004809
9.370000,9.719742,0.240444,1.114254,-0.024587,0.004171,0.004805
9.380000,9.698245,0.310068,1.110725,-0.024587,0.004589,0.005433
9.390000,9.679707,0.251368,1.146415,-0.024447,0.005203,0.005369
9.400000,9.661199,0.191390,1.182495,-0.024231,0.005920,0.004939
9.410000,9.688636,0.246799,1.163934,-0.024275,0.003349,0.003860
9.420000,9.748590,0.361584,1.120126,-0.024058,0.005371,0.004446
9.430000,9.746302,0.362283,1.118699,-0.023609,0.006674,0.005345
9.440000,9.717184,0.358912,1.105367,-0.023811,0.006573,0.005345
9.450000,9.688066,0.355540,1.092034,-0.024012,0.006473,0.005345
9.460000,9.658948,0.352168,1.078701,-0.024214,0.006372,0.005345
9.470000,9.598360,0.277209,1.149253,-0.024415,0.006271,0.005345
9.480000,9.738636,0.176713,1.200898,-0.023824,0.004333,0.005591
9.490000,9.971120,0.084280,1.222683,-0.023824,0.003575,0.005875
9.500000,9.746020,0.097821,1.137760,-0.023616,0.004067,0.005831
9.510000,9.784265,0.122305,1.141513,-0.023325,0.005054,0.005657
9.520000,9.822511,0.146789,1.145266,-0.023097,0.005897,0.005411
9.530000,9.860756,0.171273,1.149019,-0.023513,0.005220,0.004422
9.540000,9.848976,0.219006,1.159578,-0.023930,0.004542,0.003432
9.550000,9.814007,0.277517,1.173292,-0.024309,0.004177,0.002748
9.560000,9.783343,0.330430,1.186789,-0.024486,0.005500,0.003717
9.570000,9.816103,0.300877,1.197105,-0.024520,0.005964,0.004330
9.580000,9.848863,0.271323,1.207421,-0.024360,0.005263,0.004458
9.590000,9.881622,0.241770,1.217737,-0.024201,0.004562,0.004585
9.600000,9.914382,0.212216,1.228053,-0.024042,0.003861,0.004712
9.610000,9.736210,0.228293,1.215389,-0.023883,0.003160,0.004840
9.620000,9.654240,0.225805,1.200470,-0.024025,0.003606,0.004753
9.630000,9.789780,0.179320,1.191907,-0.024344,0.004724,0.004540
9.640000,9.925320,0.132835,1.183344,-0.024664,0.005841,0.004327
9.650000,9.654402,0.239653,1.173502,-0.024336,0.004626,0.005759
9.660000,9.748880,0.270633,1.175099,-0.024363,0.003777,0.005874
9.670000,9.820748,0.193632,1.111515,-0.023997,0.006161,0.005168
9.680000,9.833186,0.237442,1.151056,-0.024256,0.004911,0.004866
9.690000,9.845624,0.281252,1.190597,-0.024515,0.003660,0.004565
9.700000,9.858061,0.325063,1.230137,-0.024773,0.002410,0.004263
9.710000,9.800490,0.240059,1.228717,-0.024634,0.002437,0.004426
9.720000,9.736549,0.143335,1.223569,-0.024152,0.003561,0.004987
9.730000,9.764921,0.156698,1.166404,-0.023881,0.005365,0.004907
9.740000,9.677912,0.176001,1.149406,-0.024027,0.005802,0.005344
9.750000,9.662722,0.192335,1.158466,-0.024060,0.005833,0.006133
9.760000,9.801591,0.165823,1.196279,-0.023889,0.005628,0.006241
9.770000,9.848707,0.163150,1.171564,-0.023752,0.005834,0.005487
9.780000,9.826870,0.186855,1.134385,-0.023614,0.005595,0.004983
9.790000,9.865597,0.188915,1.181558,-0.023474,0.004705,0.004842
9.800000,9.904325,0.190975,1.228732,-0.023333,0.003816,0.004702
9.810000,9.749159,0.054456,1.102670,-0.023537,0.005543,0.004473
9.820000,9.631414,0.125058,1.219546,-0.023810,0.003378,0.004706
9.830000,9.679513,0.246810,1.141384,-0.024446,0.004389,0.003756
9.840000,9.710151,0.265667,1.110693,-0.024383,0.003689,0.004328
9.850000,9.716253,0.139947,1.146700,-0.023876,0.004037,0.005056
9.860000,9.775503,0.064750,1.179378,-0.023439,0.004765,0.005565
9.870000,9.818119,0.214837,1.196631,-0.023366,0.006501,0.004754
9.880000,9.643634,0.278830,1.133858,-0.023479,0.006158,0.004521
9.890000,9.701938,0.175749,1.172687,-0.024129,0.004123,0.005307
9.900000,9.861757,0.129054,1.196006,-0.024689,0.005538,0.005376
9.910000,9.956007,0.105929,1.225578,-0.024280,0.006847,0.005130
9.920000,9.683622,0.164859,1.100521,-0.024185,0.006150,0.004646
9.930000,9.647174,0.293930,1.156598,-0.024275,0.004278,0.004022
9.940000,9.803828,0.268983,1.140654,-0.024431,0.005316,0.004567
9.950000,9.919510,0.179129,1.185763,-0.024518,0.004928,0.004415
9.960000,9.783835,0.158532,1.192643,-0.024496,0.004490,0.004215
9.970000,9.692469,0.212345,1.193596,-0.024160,0.004308,0.004094
9.980000,9.729074,0.371744,1.170961,-0.024281,0.005036,0.004579
9.990000,9.727790,0.056107,1.239520,-0.023718,0.003911,0.004243
10.000000,9.834899,0.094573,1.195521,-0.024281,0.006409,0.005188
10.010000,9.850787,0.252439,1.193429,-0.024002,0.004877,0.003934
10.020000,9.600808,0.292790,1.111633,-0.023646,0.005912,0.003567
10.030000,9.672644,0.223991,1.179190,-0.024396,0.003246,0.003665
10.040000,9.842723,0.140672,1.182104,-0.024298,0.003740,0.003665
10.050000,9.847772,0.088616,1.203305,-0.023518,0.004580,0.004736
10.060000,9.657058,0.233135,1.152609,-0.024012,0.005027,0.004382
10.070000,9.745116,0.328292,1.175453,-0.024129,0.002888,0.004837
10.080000,9.807284,0.198545,1.116460,-0.023447,0.004032,0.005082
10.090000,9.759651,0.015064,1.183785,-0.024338,0.003702,0.004554
10.100000,9.733753,0.146593,1.143116,-0.024980,0.004627,0.004189
10.110000,9.793075,0.356841,1.193802,-0.024966,0.005585,0.003945
10.120000,9.816750,0.299101,1.197361,-0.024791,0.005103,0.003550
10.130000,9.833138,0.206968,1.189767,-0.024615,0.004621,0.003156
10.140000,9.849526,0.114835,1.182172,-0.024440,0.004138,0.002761
10.150000,9.852767,0.259076,1.163975,-0.024579,0.005509,0.003665
10.160000,9.854062,0.261180,1.176113,-0.024467,0.005658,0.003665
10.170000,9.855357,0.263284,1.188251,-0.024355,0.005807,0.003665
10.180000,9.856651,0.265388,1.200390,-0.024243,0.005957,0.003665
10.190000,9.857946,0.267492,1.212528,-0.024131,0.006106,0.003665
10.200000,9.859241,0.269596,1.224666,-0.024019,0.006255,0.003665
10.210000,9.860535,0.271700,1.236805,-0.023908,0.006404,0.003665
10.220000,9.861830,0.273804,1.248943,-0.023796,0.006553,0.003665
10.230000,9.797914,0.206443,1.237995,-0.023684,0.006702,0.003665
10.240000,9.717468,0.121474,1.221195,-0.024297,0.005937,0.004682
10.250000,9.767308,0.258755,1.186878,-0.024918,0.005117,0.005475
10.260000,9.712474,0.165770,1.189555,-0.025045,0.004919,0.004581
10.270000,9.729538,0.126499,1.176065,-0.025160,0.005154,0.004467
10.280000,9.739573,0.191749,1.143407,-0.025475,0.004210,0.004152
10.290000,9.723632,0.260565,1.116538,-0.025349,0.004165,0.004201
10.300000,9.745677,0.218702,1.135364,-0.024623,0.005345,0.004746
10.310000,9.767723,0.176840,1.154189,-0.024629,0.004872,0.004400
10.320000,9.714712,0.147664,1.126942,-0.024333,0.004266,0.004530
10.330000,9.647465,0.148114,1.109550,-0.024317,0.005314,0.005227
10.340000,9.670250,0.247367,1.178080,-0.024682,0.004185,0.005687
10.350000,9.798270,0.251737,1.144436,-0.025054,0.002640,0.006065
10.360000,9.746592,0.102447,1.161893,-0.025557,0.002221,0.006484
10.370000,9.711680,0.051784,1.173323,-0.024822,0.004880,0.004898
10.380000,9.735030,0.204966,1.165882,-0.024587,0.005009,0.004172
10.390000,9.757045,0.349798,1.156077,-0.024587,0.004181,0.003841
10.400000,9.739039,0.069239,1.218664,-0.024307,0.004117,0.005498
10.410000,9.770693,0.081457,1.176022,-0.024649,0.005534,0.005176
10.420000,9.822007,0.204955,1.176131,-0.024817,0.004956,0.005116
10.430000,9.618512,0.311167,1.072122,-0.023937,0.006185,0.005192
10.440000,9.613875,0.240770,1.166968,-0.023033,0.005755,0.005372
10.450000,9.719741,0.193025,1.200169,-0.023266,0.004559,0.005447
10.460000,9.876588,0.155731,1.204930,-0.024011,0.005463,0.005340
10.470000,9.810064,0.212476,1.187167,-0.024756,0.006368,0.005234
10.480000,9.610878,0.317993,1.161621,-0.024610,0.005848,0.005541
10.490000,9.750467,0.267193,1.181058,-0.023981,0.004591,0.005102
10.500000,9.793485,0.229001,1.179903,-0.023838,0.004188,0.004602
10.510000,9.835063,0.190996,1.178442,-0.023859,0.004065,0.004418
10.520000,9.876640,0.152992,1.176980,-0.023879,0.003943,0.004234
10.530000,9.888883,0.135489,1.172600,-0.023900,0.003820,0.004050
10.540000,9.832232,0.166134,1.161368,-0.023920,0.003698,0.003866
10.550000,9.775582,0.196779,1.150135,-0.023941,0.003575,0.003683
10.560000,9.718931,0.227424,1.138903,-0.023961,0.003452,0.003499
10.570000,9.662280,0.258070,1.127670,-0.024174,0.003426,0.003524
10.580000,9.621106,0.269041,1.144333,-0.024850,0.003695,0.004132
10.590000,9.701865,0.222242,1.179818,-0.024444,0.003979,0.004213
10.600000,9.931235,0.133706,1.178995,-0.024039,0.004263,0.004294
10.610000,9.764078,0.224800,1.168535,-0.023634,0.004546,0.004375
10.620000,9.651305,0.281802,1.154251,-0.023836,0.003888,0.004194
10.630000,9.758852,0.212282,1.130781,-0.024691,0.002523,0.003800
10.640000,9.813672,0.122187,1.137014,-0.023862,0.004735,0.004353
10.650000,9.719692,0.025473,1.209423,-0.024358,0.005818,0.005001
10.660000,9.686032,0.195178,1.164543,-0.024915,0.005111,0.005215
10.670000,9.684718,0.242885,1.129159,-0.024650,0.004420,0.005040
10.680000,9.679215,0.148752,1.190882,-0.024068,0.004912,0.004820
10.690000,9.768710,0.126959,1.141082,-0.024126,0.003821,0.004240
10.700000,9.862938,0.221950,1.166932,-0.025182,0.003965,0.004723
10.710000,9.717084,0.218891,1.143072,-0.024925,0.005505,0.004958
10.720000,9.649755,0.225064,1.200466,-0.023629,0.005153,0.005670
10.730000,9.828955,0.169880,1.169610,-0.024505,0.004041,0.005803
10.740000,9.848053,0.170654,1.160521,-0.024016,0.003971,0.005314
10.750000,9.797309,0.200139,1.158514,-0.023550,0.003828,0.004823
10.760000,9.681964,0.256252,1.163017,-0.023714,0.003091,0.004496
10.770000,9.872187,0.187471,1.192031,-0.023824,0.003501,0.004512
10.780000,9.798776,0.136434,1.139714,-0.023830,0.006030,0.005125
10.790000,9.677677,0.135778,1.163826,-0.023940,0.004595,0.003912
10.800000,9.694352,0.255415,1.120056,-0.023769,0.004054,0.003720
10.810000,9.732243,0.196350,1.140783,-0.023573,0.004297,0.004215
10.820000,9.724803,0.146463,1.192752,-0.023864,0.005736,0.005278
10.830000,9.714307,0.124657,1.231944,-0.024164,0.005237,0.004778
10.840000,9.776645,0.169378,1.174575,-0.024200,0.004468,0.004990
10.850000,9.820198,0.271131,1.166685,-0.024181,0.004690,0.005345
10.860000,9.748827,0.223892,1.185067,-0.024313,0.006015,0.005345
10.870000,9.753684,0.183990,1.172465,-0.024789,0.004589,0.005345
10.880000,9.840705,0.194170,1.134044,-0.024582,0.004929,0.005160
10.890000,9.653877,0.194758,1.132602,-0.023968,0.005247,0.004860
10.900000,9.639613,0.188034,1.142546,-0.023521,0.004672,0.004605
10.910000,9.768146,0.178652,1.153101,-0.023281,0.004325,0.004409
10.920000,9.882589,0.170034,1.161576,-0.023500,0.004481,0.004347
10.930000,9.840852,0.169880,1.146999,-0.023719,0.004638,0.004284
10.940000,9.799116,0.169727,1.132422,-0.023939,0.004795,0.004221
10.950000,9.757379,0.169573,1.117845,-0.024158,0.004951,0.004159
10.960000,9.724140,0.149302,1.126238,-0.024134,0.004597,0.004419
10.970000,9.741041,0.053875,1.223168,-0.024063,0.004210,0.004849
10.980000,9.769297,0.167568,1.141690,-0.024224,0.004371,0.005064
10.990000,9.670221,0.230853,1.125609,-0.024385,0.004532,0.005279
11.000000,9.621099,0.237977,1.148182,-0.023340,0.005068,0.005467
11.010000,9.782888,0.135892,1.195027,-0.023334,0.005028,0.005224
11.020000,9.897623,0.070338,1.208298,-0.023667,0.004828,0.004891
11.030000,9.631471,0.142361,1.169663,-0.023933,0.005605,0.004625
11.040000,9.581304,0.280316,1.155697,-0.023618,0.005687,0.004492
11.050000,9.848301,0.204225,1.169385,-0.024789,0.003964,0.005053
11.060000,9.876077,0.113514,1.137161,-0.023823,0.006739,0.005173
11.070000,9.797177,0.171002,1.142282,-0.024208,0.005860,0.004802
11.080000,9.718276,0.228490,1.147402,-0.024845,0.004296,0.004339
11.090000,9.763300,0.316428,1.170787,-0.025275,0.003185,0.004026
11.100000,9.670224,0.238763,1.122749,-0.024908,0.003819,0.004293
11.110000,9.667038,0.222755,1.130908,-0.024541,0.004453,0.004560
11.120000,9.663852,0.206748,1.139067,-0.024174,0.005087,0.004827
11.130000,9.660666,0.190740,1.147226,-0.023807,0.005722,0.005094
11.140000,9.657480,0.174732,1.155386,-0.023830,0.005718,0.005312
11.150000,9.654294,0.158724,1.163545,-0.024082,0.005339,0.005501
11.160000,9.651108,0.142717,1.171704,-0.024334,0.004961,0.005690
11.170000,9.647922,0.126709,1.179863,-0.024586,0.004583,0.005879
11.180000,9.640546,0.144847,1.180226,-0.024839,0.004205,0.006068
11.190000,9.626285,0.219096,1.167776,-0.024804,0.004743,0.005445
11.200000,9.612024,0.293345,1.155325,-0.024692,0.005531,0.004600
11.210000,9.659456,0.309479,1.158779,-0.024584,0.006227,0.003847
11.220000,9.729328,0.304474,1.168019,-0.024545,0.005758,0.004237
11.230000,9.799201,0.299470,1.177258,-0.024506,0.005290,0.004628
11.240000,9.829968,0.291641,1.177885,-0.024467,0.004821,0.005018
11.250000,9.837035,0.282101,1.173291,-0.024424,0.004408,0.005366
11.260000,9.844101,0.272561,1.168698,-0.024359,0.004277,0.005496
11.270000,9.836238,0.260012,1.165638,-0.024294,0.004147,0.005627
11.280000,9.779360,0.237584,1.167612,-0.024408,0.004376,0.005493
11.290000,9.722483,0.215156,1.169585,-0.024562,0.004684,0.005300
11.300000,9.665606,0.192728,1.171559,-0.024717,0.004993,0.005107
11.310000,9.623468,0.169420,1.167948,-0.024871,0.005301,0.004914
11.320000,9.669830,0.262833,1.144163,-0.024091,0.004677,0.005823
11.330000,9.885185,0.181737,1.202650,-0.023976,0.003637,0.005673
11.340000,9.778059,0.139919,1.142960,-0.023369,0.006865,0.005342
11.350000,9.742137,0.219956,1.133822,-0.024081,0.005442,0.004789
11.360000,9.734143,0.289248,1.138867,-0.024730,0.004084,0.004325
11.370000,9.860335,0.306915,1.212058,-0.024598,0.003556,0.004985
11.380000,9.799383,0.228664,1.215968,-0.024402,0.003975,0.004485
11.390000,9.735788,0.149058,1.218900,-0.024201,0.004479,0.003880
11.400000,9.708881,0.143197,1.199810,-0.023999,0.004983,0.003275
11.410000,9.756128,0.286391,1.136208,-0.024439,0.005040,0.004965
11.420000,9.628804,0.189807,1.170566,-0.024817,0.004885,0.006109
11.430000,9.709953,0.170003,1.170566,-0.025001,0.004519,0.006109
11.440000,9.913791,0.108913,1.201756,-0.023744,0.006231,0.005208
11.450000,9.793282,0.192812,1.125484,-0.023349,0.006312,0.004775
11.460000,9.841746,0.181377,1.162303,-0.023827,0.004877,0.004844
11.470000,9.908934,0.159377,1.211653,-0.023907,0.003748,0.004720
11.480000,9.857462,0.090226,1.164176,-0.023594,0.003435,0.004277
11.490000,9.821837,0.116932,1.134935,-0.023806,0.003648,0.003853
11.500000,9.820290,0.255372,1.139318,-0.023809,0.003839,0.003429
11.510000,9.798325,0.329169,1.143432,-0.022955,0.003946,0.003002
11.520000,9.709049,0.099187,1.158499,-0.024963,0.005028,0.002676
11.530000,9.759729,0.044928,1.199601,-0.024528,0.004157,0.003910
11.540000,9.844383,0.122221,1.183038,-0.024036,0.003652,0.004933
11.550000,9.742929,0.201392,1.172667,-0.023178,0.006543,0.003896
11.560000,9.635525,0.232817,1.169543,-0.024047,0.005062,0.004553
11.570000,9.709609,0.204158,1.164922,-0.024409,0.003616,0.005185
11.580000,9.787265,0.162033,1.140380,-0.024498,0.003750,0.005408
11.590000,9.778984,0.184392,1.122223,-0.024321,0.005427,0.005232
11.600000,9.692067,0.265756,1.109910,-0.024501,0.004542,0.005138
11.610000,9.609168,0.341779,1.098511,-0.024784,0.002918,0.005067
11.620000,9.617425,0.296603,1.107862,-0.024764,0.002659,0.004929
11.630000,9.625683,0.251427,1.117213,-0.024554,0.003259,0.004749
11.640000,9.633941,0.206250,1.126564,-0.024344,0.003859,0.004569
11.650000,9.642199,0.161074,1.135915,-0.024134,0.004458,0.004389
11.660000,9.656350,0.116015,1.148959,-0.023924,0.005058,0.004209
11.670000,9.722978,0.078415,1.188161,-0.024487,0.004153,0.005210
11.680000,9.854139,0.115274,1.191033,-0.024806,0.003409,0.005316
11.690000,9.728670,0.284349,1.139164,-0.023935,0.006053,0.005423
11.700000,9.642021,0.235637,1.191850,-0.024338,0.005851,0.005155
11.710000,9.654477,0.248885,1.179395,-0.024740,0.005649,0.004887
11.720000,9.666933,0.262133,1.166939,-0.024740,0.005267,0.004817
11.730000,9.679388,0.275382,1.154483,-0.024740,0.004884,0.004748
11.740000,9.691844,0.288630,1.142027,-0.024740,0.004501,0.004678
11.750000,9.704300,0.301878,1.129572,-0.024740,0.004118,0.004608
11.760000,9.867653,0.220796,1.172964,-0.024740,0.003971,0.004472
11.770000,9.846483,0.242547,1.148314,-0.024740,0.003971,0.004294
11.780000,9.825313,0.264297,1.123664,-0.024740,0.003971,0.004117
11.790000,9.771962,0.214136,1.142389,-0.024740,0.003832,0.004455
11.800000,9.718080,0.162791,1.161828,-0.024684,0.003808,0.005969
11.810000,9.672654,0.121721,1.178979,-0.024540,0.004963,0.005608
11.820000,9.675099,0.138833,1.183169,-0.024395,0.006118,0.005247
11.830000,9.677543,0.155945,1.187360,-0.024251,0.007273,0.004886
11.840000,9.679988,0.173057,1.191551,-0.024285,0.007545,0.005010
11.850000,9.751819,0.179016,1.164853,-0.024604,0.005335,0.006125
11.860000,9.747330,0.199506,1.158968,-0.024353,0.005034,0.005874
11.870000,9.742103,0.220130,1.153317,-0.024102,0.004732,0.005624
11.880000,9.736877,0.240754,1.147667,-0.024127,0.004131,0.005423
11.890000,9.731650,0.261378,1.142016,-0.024428,0.003227,0.005272
11.900000,9.910590,0.136236,1.200789,-0.024503,0.003169,0.004772
11.910000,9.699909,0.086090,1.145687,-0.024325,0.004062,0.003879
11.920000,9.664110,0.227150,1.177145,-0.024590,0.004721,0.003939
11.930000,9.739657,0.286466,1.131403,-0.024995,0.005306,0.004299
11.940000,9.758261,0.256369,1.133975,-0.025400,0.005891,0.004659
11.950000,9.732173,0.156093,1.174466,-0.025230,0.005408,0.004771
11.960000,9.706840,0.150147,1.179588,-0.024068,0.003085,0.004454
11.970000,9.682869,0.314143,1.120990,-0.023906,0.004460,0.004995
11.980000,9.658201,0.245930,1.153970,-0.023829,0.006151,0.005610
11.990000,9.721647,0.162201,1.182191,-0.024299,0.004852,0.004367
12.000000,9.770950,0.159921,1.155604,-0.024387,0.004677,0.004061
12.010000,9.752894,0.171279,1.118037,-0.024475,0.004501,0.003754
12.020000,9.755219,0.146277,1.110736,-0.024562,0.004326,0.003447
12.030000,9.772222,0.095088,1.125233,-0.024404,0.004423,0.003690
12.040000,9.789226,0.043900,1.139730,-0.024147,0.004628,0.004152
12.050000,9.767489,0.040104,1.169270,-0.023891,0.004833,0.004613
12.060000,9.714860,0.244550,1.167710,-0.024207,0.005040,0.004427
12.070000,9.775303,0.335488,1.125908,-0.024507,0.005059,0.004257
12.080000,9.781582,0.315784,1.135762,-0.024209,0.004562,0.004753
12.090000,9.733255,0.105513,1.165349,-0.024230,0.004765,0.004887
12.100000,9.824328,0.141747,1.178406,-0.024368,0.005225,0.004887
12.110000,9.785515,0.189542,1.180061,-0.024506,0.005685,0.004887
12.120000,9.635864,0.239206,1.171399,-0.024168,0.005621,0.005222
12.130000,9.684739,0.188109,1.174065,-0.023147,0.004804,0.006039
12.140000,9.768274,0.142016,1.187678,-0.023216,0.004422,0.005765
12.150000,9.863971,0.097678,1.205132,-0.023387,0.004081,0.005391
12.160000,9.959669,0.053340,1.222586,-0.023557,0.003740,0.005016
12.170000,9.939744,0.108042,1.208828,-0.023727,0.003400,0.004641
12.180000,9.882455,0.194749,1.184984,-0.023885,0.003638,0.004244
12.190000,9.755648,0.136574,1.223779,-0.024027,0.004629,0.003820
12.200000,9.771133,0.229598,1.170519,-0.024129,0.005480,0.003849
12.210000,9.813559,0.339947,1.160760,-0.024218,0.004413,0.004630
12.220000,9.685284,0.186731,1.160194,-0.024098,0.005447,0.004426
12.230000,9.693141,0.115299,1.189049,-0.023735,0.005512,0.004969
12.240000,9.795445,0.133177,1.171082,-0.023862,0.004811,0.005154
12.250000,9.810141,0.157848,1.163032,-0.024093,0.004349,0.005108
12.260000,9.712149,0.185250,1.175541,-0.024323,0.003888,0.005062
12.270000,9.709022,0.206323,1.159139,-0.023844,0.005052,0.004465
12.280000,9.765281,0.170877,1.150359,-0.024179,0.005253,0.005068
12.290000,9.754353,0.155933,1.163716,-0.024514,0.005454,0.005671
12.300000,9.654827,0.205636,1.189420,-0.024348,0.004767,0.004986
12.310000,9.724053,0.282588,1.130008,-0.025095,0.005141,0.006107
12.320000,9.861586,0.211620,1.167205,-0.024846,0.005721,0.004587
12.330000,9.716971,0.102630,1.123727,-0.024587,0.005700,0.003405
12.340000,9.732329,0.203335,1.156431,-0.024491,0.004863,0.003545
12.350000,9.827652,0.268072,1.160427,-0.024075,0.005236,0.003992
12.360000,9.835994,0.260622,1.204763,-0.023976,0.005018,0.004565
12.370000,9.703668,0.168983,1.212748,-0.023976,0.004731,0.004350
12.380000,9.727779,0.154554,1.182063,-0.023976,0.004445,0.004136
12.390000,9.796130,0.210925,1.135501,-0.024169,0.005005,0.004988
12.400000,9.743141,0.247532,1.143018,-0.024410,0.005090,0.005689
12.410000,9.707031,0.167288,1.182806,-0.024698,0.004513,0.006122
12.420000,9.717011,0.162186,1.179673,-0.024552,0.004010,0.005960
12.430000,9.742286,0.182020,1.162296,-0.023913,0.003977,0.005002
12.440000,9.767561,0.201853,1.144920,-0.023773,0.004327,0.004581
12.450000,9.657059,0.257793,1.145163,-0.023754,0.004196,0.004331
12.460000,9.730341,0.161917,1.143942,-0.024054,0.002793,0.004532
12.470000,9.759740,0.097716,1.150036,-0.023776,0.005851,0.004608
12.480000,9.656042,0.129588,1.178317,-0.024343,0.005284,0.003928
12.490000,9.773104,0.301585,1.167436,-0.024197,0.004574,0.004677
12.500000,9.844179,0.271433,1.188373,-0.024024,0.003942,0.004562
12.510000,9.826920,0.229944,1.170766,-0.023852,0.003310,0.004448
12.520000,9.809662,0.188454,1.153159,-0.023824,0.004197,0.004594
12.530000,9.779682,0.160881,1.134962,-0.023824,0.005381,0.004791
12.540000,9.678855,0.210798,1.113474,-0.023938,0.005471,0.005115
12.550000,9.613441,0.236547,1.105717,-0.024160,0.004528,0.005559
12.560000,9.616458,0.215591,1.124494,-0.024382,0.003585,0.006003
12.570000,9.619476,0.194635,1.143271,-0.024624,0.004447,0.005494
12.580000,9.622494,0.173678,1.162047,-0.024872,0.005875,0.004687
12.590000,9.595903,0.284577,1.164022,-0.024418,0.006297,0.004228
12.600000,9.686405,0.244664,1.157546,-0.023491,0.005130,0.004491
12.610000,9.810369,0.154197,1.150161,-0.024155,0.004983,0.004638
12.620000,9.718315,0.052781,1.182872,-0.024602,0.004769,0.004661
12.630000,9.676548,0.243490,1.139028,-0.024644,0.004431,0.004449
12.640000,9.691302,0.184848,1.165921,-0.024687,0.004093,0.004238
12.650000,9.706056,0.126207,1.192814,-0.024729,0.003755,0.004027
12.660000,9.720930,0.067737,1.219564,-0.024641,0.004062,0.004269
12.670000,9.814662,0.187528,1.194444,-0.024249,0.003599,0.004767
12.680000,9.703505,0.268302,1.127941,-0.024025,0.004822,0.005305
12.690000,9.629411,0.259931,1.125852,-0.024026,0.004800,0.005249
12.700000,9.607517,0.233530,1.165453,-0.024104,0.003706,0.004858
12.710000,9.913525,0.130695,1.154058,-0.024277,0.004545,0.005179
12.720000,9.735869,0.126753,1.159756,-0.024251,0.006261,0.005101
12.730000,9.628646,0.286464,1.187431,-0.023697,0.004294,0.005507
12.740000,9.743193,0.273335,1.121782,-0.023959,0.004468,0.005594
12.750000,9.824324,0.188148,1.155366,-0.024251,0.004642,0.005347
12.760000,9.722863,0.042585,1.163913,-0.023659,0.006508,0.004333
12.770000,9.755455,0.145675,1.169417,-0.023769,0.006034,0.004123
12.780000,9.805493,0.276559,1.174809,-0.024260,0.004645,0.004123
12.790000,9.763700,0.290337,1.153063,-0.024282,0.005162,0.005284
12.800000,9.724638,0.128077,1.165035,-0.024387,0.005937,0.004858
12.810000,9.821268,0.186124,1.158827,-0.024396,0.004943,0.005192
12.820000,9.771322,0.249628,1.128778,-0.024375,0.006189,0.005378
12.830000,9.680443,0.212974,1.168332,-0.024620,0.005751,0.004940
12.840000,9.702192,0.178445,1.177427,-0.024740,0.005074,0.004427
12.850000,9.756657,0.167527,1.154473,-0.024740,0.005617,0.004180
12.860000,9.716793,0.159626,1.148726,-0.024740,0.006159,0.003934
12.870000,9.715332,0.167060,1.140078,-0.024929,0.005544,0.004310
12.880000,9.765984,0.195302,1.127492,-0.025286,0.003903,0.005237
12.890000,9.850197,0.181858,1.178077,-0.024425,0.003666,0.005011
12.900000,9.665940,0.081818,1.103047,-0.024295,0.005739,0.004622
12.910000,9.687931,0.220869,1.160667,-0.024468,0.004841,0.004396
12.920000,9.822649,0.261697,1.158321,-0.024639,0.003603,0.004796
12.930000,9.836391,0.278924,1.193424,-0.024709,0.002742,0.005796
12.940000,9.819427,0.257176,1.176678,-0.024538,0.003557,0.005753
12.950000,9.802463,0.235427,1.159932,-0.024366,0.004372,0.005710
12.960000,9.754441,0.251862,1.133148,-0.024195,0.005187,0.005667
12.970000,9.678818,0.301638,1.097840,-0.024129,0.005068,0.005722
12.980000,9.672569,0.157432,1.160474,-0.023768,0.004450,0.005343
12.990000,9.791581,0.140220,1.155544,-0.022558,0.004010,0.003804
13.000000,9.844749,0.146553,1.174505,-0.023790,0.005153,0.002798
13.010000,9.605962,0.273614,1.181891,-0.024789,0.005972,0.002531
13.020000,9.709800,0.260729,1.142857,-0.022963,0.004887,0.005258
13.030000,9.923932,0.139512,1.203613,-0.023830,0.003518,0.004879
13.040000,9.781653,0.078736,1.167077,-0.024270,0.003869,0.004352
13.050000,9.646394,0.225784,1.150469,-0.024537,0.004123,0.004071
13.060000,9.788472,0.320540,1.114616,-0.024357,0.004123,0.004432
13.070000,9.757003,0.157623,1.156246,-0.024176,0.004123,0.004793
13.080000,9.749471,0.059591,1.186652,-0.024021,0.004340,0.004670
13.090000,9.807420,0.139046,1.186354,-0.023889,0.004342,0.004494
13.100000,9.789990,0.241611,1.162512,-0.023942,0.004331,0.004109
13.110000,9.621263,0.267796,1.131805,-0.023824,0.004695,0.004926
13.120000,9.708846,0.173466,1.172459,-0.023634,0.003516,0.005250
13.130000,9.967575,0.079339,1.231616,-0.023626,0.003376,0.004334
13.140000,9.780431,0.128991,1.143392,-0.023792,0.006405,0.004091
13.150000,9.602604,0.261406,1.190265,-0.024343,0.003800,0.004253
13.160000,9.684227,0.321845,1.088148,-0.025183,0.003581,0.003403
13.170000,9.714956,0.140634,1.119647,-0.025103,0.004842,0.003145
13.180000,9.726039,0.003459,1.163126,-0.024796,0.006301,0.003068
13.190000,9.667942,0.120415,1.218548,-0.023372,0.004436,0.003820
13.200000,9.676327,0.101710,1.204789,-0.023762,0.004881,0.003931
13.210000,9.684712,0.083005,1.191029,-0.024151,0.005327,0.004042
13.220000,9.712563,0.070182,1.184456,-0.024435,0.005443,0.004274
13.230000,9.778073,0.071047,1.191746,-0.024435,0.004680,0.004829
13.240000,9.839597,0.119153,1.196655,-0.024408,0.003994,0.005345
13.250000,9.896559,0.151164,1.203255,-0.024030,0.004324,0.005345
13.260000,9.936950,0.124717,1.215997,-0.023653,0.004655,0.005345
13.270000,9.977342,0.098270,1.228740,-0.023275,0.004985,0.005345
13.280000,9.855653,0.103872,1.176631,-0.024507,0.004254,0.004650
13.290000,9.674242,0.181103,1.198930,-0.024559,0.005128,0.005278
13.300000,9.695010,0.298151,1.135337,-0.024334,0.004484,0.004988
13.310000,9.789002,0.275414,1.125449,-0.024435,0.005142,0.004759
13.320000,9.751998,0.090503,1.135493,-0.024434,0.005496,0.004582
13.330000,9.678379,0.092879,1.156454,-0.024335,0.004497,0.004782
13.340000,9.823482,0.285953,1.158472,-0.024020,0.005019,0.004625
13.350000,9.781634,0.333925,1.134996,-0.023451,0.005718,0.004792
13.360000,9.753661,0.233734,1.151001,-0.023818,0.004988,0.004524
13.370000,9.726671,0.123044,1.169803,-0.024342,0.003344,0.004795
13.380000,9.699698,0.205477,1.122459,-0.024748,0.002059,0.005241
13.390000,9.672582,0.258302,1.107862,-0.024850,0.004923,0.005854
13.400000,9.658531,0.186415,1.201615,-0.024672,0.004346,0.005888
13.410000,9.832270,0.168879,1.150158,-0.024587,0.004067,0.005562
13.420000,9.925597,0.158337,1.179205,-0.024555,0.004364,0.005313
13.430000,9.691626,0.237426,1.207922,-0.024448,0.004150,0.005206
13.440000,9.702252,0.251866,1.192764,-0.024052,0.005039,0.004468
13.450000,9.774171,0.250106,1.166612,-0.024364,0.005247,0.004104
13.460000,9.728845,0.143349,1.151406,-0.024676,0.005455,0.003740
13.470000,9.647129,0.189219,1.137212,-0.024190,0.005168,0.003995
13.480000,9.704459,0.250098,1.150819,-0.023901,0.004851,0.004312
13.490000,9.767169,0.279287,1.169974,-0.023792,0.004579,0.004584
13.500000,9.799013,0.261331,1.174535,-0.023683,0.004307,0.004856
13.510000,9.746832,0.151953,1.152376,-0.024426,0.003251,0.004219
13.520000,9.714206,0.157451,1.169422,-0.024379,0.003488,0.004740
13.530000,9.681581,0.162950,1.186468,-0.024331,0.003724,0.005262
13.540000,9.663155,0.164879,1.201018,-0.024284,0.003961,0.005783
13.550000,9.903840,0.128219,1.183539,-0.024389,0.003756,0.005543
13.560000,9.875251,0.177825,1.192155,-0.024292,0.003631,0.005049
13.570000,9.717629,0.239537,1.176470,-0.023538,0.004322,0.004295
13.580000,9.586068,0.295486,1.163514,-0.022783,0.005013,0.003541
13.590000,9.633103,0.311948,1.169263,-0.023122,0.004966,0.004760
13.600000,9.680138,0.328411,1.175011,-0.023503,0.004890,0.006056
13.610000,9.727173,0.344873,1.180760,-0.023947,0.004137,0.005091
13.620000,9.774208,0.361335,1.186509,-0.024393,0.003355,0.004030
13.630000,9.731713,0.238011,1.116846,-0.023924,0.005196,0.004722
13.640000,9.757320,0.086173,1.217986,-0.023469,0.004844,0.005496
13.650000,9.780053,0.049300,1.228263,-0.023688,0.004562,0.005651
13.660000,9.795457,0.087583,1.184077,-0.024301,0.005108,0.005651
13.670000,9.765242,0.129140,1.181599,-0.024718,0.005400,0.005568
13.680000,9.735028,0.170697,1.179121,-0.024638,0.005057,0.005277
13.690000,9.704813,0.212254,1.176643,-0.024559,0.004713,0.004987
13.700000,9.674598,0.253811,1.174165,-0.024480,0.004370,0.004696
13.710000,9.644384,0.295369,1.171687,-0.024401,0.004027,0.004406
13.720000,9.614169,0.336926,1.169208,-0.024321,0.003683,0.004115
13.730000,9.772112,0.213544,1.190531,-0.023998,0.003973,0.003971
13.740000,9.734218,0.068830,1.196797,-0.023435,0.004889,0.003971
13.750000,9.708742,0.086847,1.168858,-0.023308,0.005002,0.004112
13.760000,9.721449,0.209362,1.131293,-0.024047,0.003524,0.004535
13.770000,9.758845,0.171659,1.142481,-0.024058,0.003574,0.004724
13.780000,9.796241,0.133957,1.153669,-0.023977,0.003815,0.004885
13.790000,9.833637,0.096255,1.164857,-0.023897,0.004056,0.005046
13.800000,9.846517,0.130265,1.170807,-0.023866,0.004264,0.005217
13.810000,9.838787,0.224559,1.172353,-0.024356,0.004124,0.005496
13.820000,9.851214,0.226425,1.158639,-0.024845,0.003984,0.005776
13.830000,9.876713,0.168343,1.135029,-0.024321,0.004885,0.005575
13.840000,9.884362,0.112802,1.121337,-0.023688,0.005898,0.005321
13.850000,9.707850,0.093677,1.210750,-0.023525,0.006467,0.005166
13.860000,9.701083,0.084462,1.208447,-0.023849,0.006575,0.005112
13.870000,9.694316,0.075248,1.206143,-0.024173,0.006683,0.005058
13.880000,9.687549,0.066034,1.203839,-0.024221,0.005809,0.004615
13.890000,9.698214,0.098151,1.181789,-0.024130,0.004440,0.003976
13.900000,9.801915,0.284066,1.156046,-0.024182,0.004524,0.004286
13.910000,9.783672,0.277989,1.173508,-0.023860,0.003864,0.004698
13.920000,9.697366,0.133850,1.198760,-0.024106,0.005207,0.004549
13.930000,9.685447,0.139847,1.204292,-0.024483,0.004193,0.004811
13.940000,9.662330,0.157058,1.194505,-0.024364,0.004272,0.005249
13.950000,9.639214,0.174268,1.184719,-0.024244,0.004352,0.005686
13.960000,9.663375,0.189215,1.167551,-0.024127,0.004461,0.006089
13.970000,9.732477,0.187949,1.132971,-0.024068,0.005351,0.005555
13.980000,9.756894,0.178450,1.116736,-0.024008,0.006241,0.005021
13.990000,9.674630,0.216294,1.183142,-0.023573,0.004814,0.005272
14.000000,9.821224,0.235705,1.172839,-0.023145,0.004497,0.005434
14.010000,9.828236,0.122161,1.172551,-0.025185,0.002709,0.003360
14.020000,9.653756,0.111229,1.155158,-0.023787,0.006554,0.003824
14.030000,9.673053,0.211160,1.148326,-0.024003,0.004879,0.004635
14.040000,9.769850,0.314169,1.107237,-0.024098,0.004309,0.004825
14.050000,9.752772,0.136649,1.182192,-0.023800,0.003794,0.005326
14.060000,9.733022,0.088225,1.197880,-0.023906,0.003806,0.005498
14.070000,9.776628,0.153708,1.194543,-0.024225,0.003997,0.005498
14.080000,9.740847,0.278130,1.131107,-0.024432,0.006403,0.005950
14.090000,9.623555,0.208908,1.163063,-0.024188,0.005427,0.005462
14.100000,9.761176,0.142067,1.166648,-0.023645,0.005408,0.005303
14.110000,9.919647,0.106515,1.210143,-0.023231,0.006401,0.004641
14.120000,9.834620,0.158942,1.213277,-0.023184,0.006625,0.004206
14.130000,9.590796,0.275020,1.177718,-0.024444,0.004133,0.004579
14.140000,9.725788,0.287392,1.120217,-0.025037,0.004732,0.004422
14.150000,9.907321,0.165918,1.194275,-0.024590,0.004604,0.004038
14.160000,9.756020,0.154574,1.197415,-0.024143,0.004476,0.003655
14.170000,9.698377,0.258353,1.159870,-0.024688,0.004790,0.004375
14.180000,9.750813,0.310579,1.136645,-0.024672,0.005519,0.004247
14.190000,9.743549,0.207174,1.156942,-0.024887,0.005573,0.004945
14.200000,9.736285,0.103768,1.177239,-0.025102,0.005626,0.005644
14.210000,9.786218,0.052307,1.179291,-0.024947,0.004021,0.004577
14.220000,9.696848,0.323257,1.080417,-0.024628,0.006577,0.005203
14.230000,9.572281,0.234649,1.178370,-0.024164,0.005191,0.005486
14.240000,9.723708,0.172604,1.167035,-0.023683,0.004296,0.005647
14.250000,9.735970,0.148525,1.154550,-0.023827,0.004549,0.005417
14.260000,9.748233,0.124445,1.142064,-0.023987,0.004829,0.005177
14.270000,9.747014,0.172828,1.121743,-0.024147,0.005109,0.004937
14.280000,9.722216,0.330054,1.093346,-0.023370,0.005032,0.003968
14.290000,9.704255,0.262889,1.127958,-0.023559,0.004653,0.003826
14.300000,9.686294,0.195723,1.162569,-0.023749,0.004274,0.003683
14.310000,9.668334,0.128558,1.197181,-0.023938,0.003895,0.003541
14.320000,9.754913,0.259553,1.187331,-0.024407,0.004079,0.004222
14.330000,9.725130,0.161932,1.189537,-0.024350,0.004307,0.004108
14.340000,9.720921,0.099052,1.181913,-0.024294,0.004535,0.003994
14.350000,9.784182,0.114557,1.171584,-0.024722,0.004669,0.004411
14.360000,9.890687,0.165115,1.186088,-0.024690,0.005978,0.004912
14.370000,9.648950,0.244517,1.118537,-0.024632,0.006150,0.005237
14.380000,9.636745,0.215968,1.164689,-0.024749,0.005360,0.005402
14.390000,9.949033,0.128994,1.213778,-0.023976,0.003322,0.005867
14.400000,9.733761,0.103588,1.169746,-0.024583,0.006236,0.003683
14.410000,9.665464,0.211558,1.208916,-0.024476,0.004038,0.003554
14.420000,9.819127,0.272667,1.129134,-0.024363,0.003351,0.003800
14.430000,9.828905,0.247914,1.121189,-0.024227,0.003869,0.003986
14.440000,9.818779,0.204184,1.115349,-0.024040,0.005088,0.003517
14.450000,9.656525,0.119455,1.126150,-0.024327,0.005060,0.004674
14.460000,9.822157,0.268287,1.171403,-0.024328,0.005253,0.005547
14.470000,9.775350,0.256173,1.143236,-0.023819,0.006254,0.005340
14.480000,9.746734,0.175558,1.158940,-0.023532,0.005775,0.005053
14.490000,9.808444,0.197380,1.175580,-0.023640,0.004839,0.004448
14.500000,9.725552,0.246375,1.134424,-0.024408,0.005337,0.003387
14.510000,9.642198,0.198763,1.176435,-0.024740,0.005039,0.004929
14.520000,9.800184,0.161412,1.156724,-0.024254,0.004335,0.005560
14.530000,9.918019,0.174106,1.172531,-0.024400,0.004429,0.005498
14.540000,9.704076,0.156737,1.148565,-0.024164,0.005149,0.005137
14.550000,9.613433,0.185858,1.154227,-0.023914,0.005180,0.004950
14.560000,9.604561,0.243530,1.178774,-0.023748,0.003938,0.005115
14.570000,9.838561,0.216516,1.185481,-0.023842,0.003730,0.005078
14.580000,9.736717,0.240119,1.156195,-0.024161,0.004422,0.004865
14.590000,9.634873,0.263723,1.126909,-0.024481,0.005115,0.004652
14.600000,9.798421,0.298895,1.155791,-0.023697,0.003995,0.005161
14.610000,9.755762,0.226061,1.106480,-0.023161,0.006478,0.005014
14.620000,9.713336,0.234861,1.102408,-0.023028,0.006646,0.004947
14.630000,9.670909,0.243662,1.098337,-0.022894,0.006813,0.004880
14.640000,9.628483,0.252462,1.094265,-0.022760,0.006981,0.004813
14.650000,9.586057,0.261263,1.090193,-0.022626,0.007148,0.004746
14.660000,9.860927,0.098272,1.188240,-0.024347,0.004619,0.005316
14.670000,9.911792,0.114528,1.171077,-0.024506,0.004127,0.005652
14.680000,9.801822,0.150769,1.149967,-0.023933,0.005018,0.005067
14.690000,9.597983,0.326109,1.131563,-0.024724,0.005323,0.004450
14.700000,9.850662,0.204466,1.202907,-0.023827,0.003669,0.004886
14.710000,9.879371,0.130299,1.153690,-0.024280,0.004577,0.004561
14.720000,9.818849,0.054166,1.157667,-0.024737,0.005492,0.004234
14.730000,9.671120,0.300067,1.134065,-0.024475,0.004094,0.003170
14.740000,9.757406,0.334630,1.140647,-0.024054,0.003273,0.003280
14.750000,9.718476,0.173363,1.126713,-0.023878,0.004885,0.004160
14.760000,9.760785,0.060941,1.220196,-0.024060,0.003334,0.004799
14.770000,9.854444,0.116042,1.169452,-0.024895,0.003577,0.005906
14.780000,9.816238,0.288951,1.145940,-0.023783,0.005183,0.005535
14.790000,9.602121,0.256746,1.134275,-0.024177,0.005196,0.005671
14.800000,9.825267,0.138014,1.191549,-0.023711,0.004060,0.005803
14.810000,9.888970,0.114488,1.156715,-0.023677,0.004617,0.005950
14.820000,9.697780,0.129744,1.193039,-0.023965,0.005114,0.004857
14.830000,9.629742,0.328849,1.141212,-0.024153,0.004734,0.003457
14.840000,9.828550,0.256194,1.187699,-0.023684,0.002618,0.003360
14.850000,9.798442,0.131105,1.121314,-0.023757,0.004216,0.003995
14.860000,9.741107,0.062596,1.156479,-0.024437,0.005309,0.004305
14.870000,9.758186,0.270738,1.127079,-0.024482,0.004863,0.003987
14.880000,9.797297,0.351923,1.162803,-0.025224,0.004492,0.004234
14.890000,9.684478,0.238237,1.128957,-0.024343,0.005638,0.004478
14.900000,9.743782,0.112454,1.182493,-0.023703,0.004870,0.003917
14.910000,9.779921,0.184731,1.162101,-0.024338,0.004812,0.004783
14.920000,9.805199,0.252571,1.144049,-0.024974,0.004755,0.005650
14.930000,9.628225,0.210982,1.176581,-0.024207,0.005159,0.005814
14.940000,9.630645,0.192753,1.183517,-0.024422,0.004858,0.005761
14.950000,9.633064,0.174525,1.190454,-0.024730,0.004506,0.005717
14.960000,9.635484,0.156296,1.197390,-0.025038,0.004153,0.005673
14.970000,9.679088,0.236709,1.156003,-0.024951,0.003971,0.005321
14.980000,9.706957,0.226967,1.129012,-0.024475,0.004575,0.004926
14.990000,9.714990,0.143127,1.123239,-0.024026,0.005602,0.004734
15.000000,9.680404,0.101225,1.152548,-0.023234,0.006075,0.003212
15.010000,9.670725,0.167973,1.172889,-0.023681,0.005348,0.003324
15.020000,9.733632,0.234692,1.139665,-0.024128,0.004622,0.003436
15.030000,9.697651,0.115369,1.172668,-0.023371,0.006547,0.004133
15.040000,9.733423,0.138105,1.176086,-0.024035,0.004290,0.005195
15.050000,9.807947,0.226374,1.160651,-0.023722,0.003938,0.004329
15.060000,9.743479,0.293754,1.113652,-0.023975,0.004527,0.005340
15.070000,9.672907,0.222747,1.156726,-0.024196,0.004486,0.005288
15.080000,9.834124,0.127113,1.185143,-0.024282,0.003584,0.004506
15.090000,9.849850,0.146713,1.155922,-0.023767,0.005112,0.004581
15.100000,9.659515,0.214823,1.122760,-0.022764,0.008824,0.004581
15.110000,9.679401,0.273588,1.140169,-0.024587,0.005381,0.004716
15.120000,9.921624,0.171667,1.180606,-0.024479,0.003634,0.005427
15.130000,9.782117,0.055259,1.139929,-0.024076,0.005687,0.005052
15.140000,9.611586,0.160848,1.183239,-0.024503,0.005230,0.003440
15.150000,9.663303,0.261229,1.146122,-0.024733,0.004385,0.004007
15.160000,9.794215,0.327503,1.133647,-0.024875,0.003713,0.004899
15.170000,9.738857,0.065350,1.178104,-0.024441,0.004870,0.005188
15.180000,9.776255,0.091565,1.186124,-0.024232,0.005557,0.004673
15.190000,9.822733,0.219866,1.167254,-0.024893,0.004064,0.004328
15.200000,9.695495,0.337695,1.104531,-0.024893,0.004656,0.004657
15.210000,9.638601,0.257901,1.149167,-0.024893,0.005247,0.004985
15.220000,9.807803,0.149453,1.191613,-0.024380,0.004661,0.004954
15.230000,9.905865,0.098480,1.172749,-0.023853,0.005294,0.004579
15.240000,9.667469,0.201038,1.133244,-0.023822,0.006649,0.004161
15.250000,9.597874,0.276376,1.152440,-0.024129,0.005881,0.004238
15.260000,9.760516,0.258658,1.132349,-0.024282,0.004082,0.004669
15.270000,9.817010,0.030829,1.170685,-0.024282,0.004169,0.004756
15.280000,9.696809,0.105407,1.196165,-0.023809,0.004685,0.003635
15.290000,9.746352,0.323236,1.138502,-0.024453,0.005103,0.003881
15.300000,9.757918,0.361009,1.114821,-0.024587,0.005645,0.004574
15.310000,9.726629,0.219458,1.134776,-0.024587,0.006045,0.005150
15.320000,9.732641,0.061235,1.172649,-0.024081,0.005088,0.004943
15.330000,9.860066,0.125846,1.203707,-0.024362,0.004332,0.004204
15.340000,9.767666,0.254830,1.128810,-0.024807,0.005713,0.004760
15.350000,9.660572,0.289483,1.122399,-0.024598,0.006435,0.005308
15.360000,9.625954,0.238662,1.175776,-0.024158,0.005572,0.004949
15.370000,9.903298,0.089144,1.183370,-0.023242,0.004361,0.005225
15.380000,9.692575,0.158240,1.166633,-0.024172,0.006418,0.004319
15.390000,9.690594,0.269948,1.142515,-0.024321,0.004468,0.004657
15.400000,9.803430,0.259215,1.129220,-0.024078,0.004225,0.004819
15.410000,9.807537,0.149459,1.154400,-0.024054,0.003421,0.005043
15.420000,9.712782,0.023239,1.154400,-0.024613,0.002652,0.004418
15.430000,9.779525,0.239646,1.165591,-0.024409,0.003371,0.004261
15.440000,9.767081,0.346954,1.140229,-0.024129,0.004903,0.005393
15.450000,9.670048,0.131742,1.164644,-0.023990,0.005470,0.004540
15.460000,9.707436,0.129250,1.151292,-0.024092,0.004635,0.004544
15.470000,9.816457,0.152844,1.156897,-0.024217,0.003691,0.004670
15.480000,9.742518,0.261228,1.115303,-0.022920,0.005807,0.004982
15.490000,9.666275,0.201980,1.195598,-0.023900,0.004607,0.004504
15.500000,9.765871,0.199152,1.167055,-0.024015,0.004907,0.005588
15.510000,9.873125,0.166976,1.175705,-0.022813,0.005685,0.005305
15.520000,9.744269,0.141775,1.137405,-0.021782,0.006318,0.004991
15.530000,9.773597,0.211931,1.129055,-0.023330,0.004770,0.004217
15.540000,9.861178,0.217815,1.146220,-0.024451,0.003521,0.003947
15.550000,9.823367,0.138245,1.156604,-0.024743,0.003450,0.004148
15.560000,9.647957,0.080535,1.149782,-0.024296,0.005089,0.004223
15.570000,9.674321,0.213903,1.161927,-0.024120,0.005637,0.004324
15.580000,9.814508,0.272368,1.146778,-0.024577,0.003781,0.005040
15.590000,9.756253,0.160588,1.177188,-0.023740,0.006007,0.004373
15.600000,9.714979,0.089800,1.183975,-0.024059,0.006523,0.003829
15.610000,9.725504,0.098337,1.179181,-0.024157,0.006103,0.004027
15.620000,9.736029,0.106874,1.174386,-0.024256,0.005684,0.004224
15.630000,9.746554,0.115411,1.169591,-0.024355,0.005264,0.004422
15.640000,9.757079,0.123948,1.164797,-0.024454,0.004844,0.004620
15.650000,9.734468,0.158323,1.140505,-0.024552,0.004424,0.004817
15.660000,9.704724,0.206238,1.109830,-0.024524,0.004466,0.004697
15.670000,9.745626,0.232458,1.111578,-0.024344,0.004747,0.004442
15.680000,9.857251,0.188987,1.159286,-0.023397,0.004786,0.004597
15.690000,9.852849,0.082138,1.170301,-0.024628,0.004711,0.004959
15.700000,9.671969,0.133074,1.179266,-0.025351,0.005644,0.004709
15.710000,9.672411,0.224730,1.190035,-0.025124,0.005046,0.004230
15.720000,9.770271,0.278567,1.167042,-0.024724,0.005597,0.003880
15.730000,9.781086,0.201291,1.159273,-0.024324,0.006147,0.003530
15.740000,9.757526,0.078921,1.189668,-0.024240,0.005079,0.004584
15.750000,9.827793,0.164575,1.169246,-0.024794,0.004197,0.005040
15.760000,9.724574,0.345072,1.117993,-0.024186,0.005254,0.005464
15.770000,9.625054,0.244075,1.147061,-0.024043,0.005087,0.005154
15.780000,9.730969,0.166922,1.182500,-0.024435,0.003028,0.005482
15.790000,9.907056,0.091781,1.200716,-0.024435,0.002590,0.005219
15.800000,9.833327,0.137386,1.156577,-0.024537,0.003922,0.005091
15.810000,9.657144,0.224728,1.180259,-0.024571,0.006522,0.005213
15.820000,9.792137,0.197446,1.182816,-0.024114,0.004752,0.005271
15.830000,9.894934,0.163981,1.179725,-0.023657,0.002981,0.005328
15.840000,9.841984,0.100609,1.149307,-0.023704,0.005349,0.004135
15.850000,9.788821,0.063404,1.118766,-0.024124,0.005013,0.003127
15.860000,9.768405,0.312531,1.119050,-0.024282,0.004887,0.003395
15.870000,9.777574,0.352262,1.145877,-0.024282,0.004887,0.004428
15.880000,9.704276,0.117690,1.170197,-0.024160,0.004153,0.004642
15.890000,9.813072,0.115257,1.175580,-0.023907,0.004100,0.004694
15.900000,9.830592,0.290262,1.150321,-0.023432,0.004562,0.005323
15.910000,9.636406,0.232625,1.151376,-0.023926,0.007373,0.004364
15.920000,9.651908,0.202539,1.143650,-0.024260,0.005650,0.005127
15.930000,9.896226,0.100403,1.157949,-0.023672,0.004278,0.004887
15.940000,9.782003,0.160745,1.156616,-0.024540,0.005176,0.006150
15.950000,9.663405,0.181919,1.167473,-0.024098,0.004955,0.005161
15.960000,9.661209,0.281618,1.145952,-0.023888,0.004396,0.004951
15.970000,9.732843,0.196455,1.121867,-0.023678,0.003837,0.004741
15.980000,9.773335,0.147434,1.107670,-0.023599,0.004887,0.004943
15.990000,9.748845,0.197567,1.109110,-0.023880,0.004887,0.004606
16.000000,9.770827,0.249726,1.136751,-0.024160,0.004887,0.004269
16.010000,9.807380,0.260963,1.179622,-0.024282,0.005654,0.004054
16.020000,9.691458,0.163039,1.156669,-0.024032,0.006130,0.004220
16.030000,9.776651,0.151802,1.141878,-0.023474,0.006186,0.003991
16.040000,9.805504,0.197567,1.147801,-0.023848,0.006024,0.004027
16.050000,9.814170,0.254521,1.169235,-0.024530,0.005257,0.004538
16.060000,9.655419,0.174882,1.192637,-0.024461,0.004311,0.005337
16.070000,9.903332,0.133491,1.155536,-0.024314,0.003520,0.005257
16.080000,9.834963,0.197968,1.153313,-0.023790,0.004049,0.004897
16.090000,9.615561,0.179074,1.160889,-0.024244,0.005563,0.003460
16.100000,9.697444,0.226500,1.168048,-0.023742,0.004663,0.004500
16.110000,9.864732,0.149670,1.169753,-0.023230,0.005218,0.003979
16.120000,9.875411,0.145093,1.150428,-0.023463,0.005567,0.004096
16.130000,9.642240,0.179173,1.138058,-0.024983,0.004707,0.003856
16.140000,9.729652,0.284893,1.122237,-0.025112,0.003888,0.005083
16.150000,9.804513,0.240017,1.160628,-0.024714,0.003402,0.005049
16.160000,9.719350,0.128837,1.187207,-0.024129,0.004700,0.004751
16.170000,9.737962,0.148718,1.171755,-0.023850,0.004801,0.004329
16.180000,9.808955,0.261921,1.165231,-0.023980,0.004009,0.004383
16.190000,9.681432,0.248937,1.127793,-0.023926,0.004937,0.004988
16.200000,9.690457,0.176238,1.159448,-0.024296,0.004587,0.005783
16.210000,9.858537,0.113951,1.143255,-0.024230,0.004208,0.005479
16.220000,9.885943,0.157324,1.160437,-0.023978,0.004124,0.004889
16.230000,9.629942,0.171624,1.111277,-0.023976,0.005865,0.003280
16.240000,9.592179,0.282149,1.160786,-0.024129,0.004267,0.003660
16.250000,9.830525,0.189536,1.163009,-0.024110,0.003932,0.003687
16.260000,9.906304,0.120067,1.181234,-0.023991,0.003753,0.004769
16.270000,9.691620,0.107429,1.177092,-0.024249,0.004422,0.003785
16.280000,9.689067,0.278364,1.139793,-0.024296,0.004116,0.003929
16.290000,9.776838,0.303863,1.112241,-0.023968,0.005082,0.003809
16.300000,9.728416,0.143192,1.144419,-0.024435,0.004970,0.004490
16.310000,9.730956,0.067863,1.180414,-0.024313,0.003665,0.004613
16.320000,9.810719,0.169500,1.183592,-0.024186,0.003267,0.004486
16.330000,9.713131,0.291004,1.130053,-0.024773,0.004266,0.004385
16.340000,9.638981,0.220905,1.158351,-0.024277,0.004643,0.004496
16.350000,9.792349,0.145652,1.152223,-0.024692,0.003594,0.005536
16.360000,9.955141,0.113210,1.197932,-0.024180,0.004072,0.005328
16.370000,9.693886,0.123263,1.108923,-0.024256,0.007069,0.005472
16.380000,9.596882,0.279532,1.168815,-0.025345,0.004899,0.004434
16.390000,9.731587,0.236802,1.169597,-0.024631,0.004690,0.004822
16.400000,9.866293,0.194071,1.170378,-0.023907,0.004493,0.005216
16.410000,9.816729,0.179014,1.185196,-0.023846,0.004673,0.005101
16.420000,9.708990,0.172693,1.204446,-0.024105,0.005036,0.004738
16.430000,9.762508,0.262242,1.163893,-0.024364,0.005399,0.004375
16.440000,9.710941,0.254099,1.134218,-0.024608,0.004778,0.004668
16.450000,9.695324,0.097505,1.159315,-0.024713,0.005020,0.004820
16.460000,9.805468,0.146039,1.166999,-0.024622,0.004648,0.004530
16.470000,9.782917,0.249349,1.144282,-0.024849,0.004559,0.004668
16.480000,9.681855,0.257854,1.150094,-0.024395,0.005623,0.005478
16.490000,9.717471,0.202069,1.143078,-0.023732,0.004554,0.005387
16.500000,9.867276,0.147648,1.173582,-0.023328,0.003497,0.003970
16.510000,9.733366,0.124009,1.132248,-0.024740,0.005140,0.003716
16.520000,9.627881,0.224424,1.183042,-0.023419,0.004252,0.004406
16.530000,9.734605,0.252556,1.122382,-0.024582,0.003955,0.003881
16.540000,9.842458,0.222572,1.160909,-0.024398,0.003857,0.004046
16.550000,9.692639,0.072265,1.140259,-0.024110,0.005778,0.003818
16.560000,9.727266,0.198995,1.172015,-0.024038,0.003102,0.004008
16.570000,9.811681,0.271735,1.120991,-0.025026,0.003302,0.004982
16.580000,9.808660,0.256362,1.161932,-0.024216,0.003352,0.004685
16.590000,9.669640,0.109233,1.181958,-0.023774,0.005649,0.004327
16.600000,9.739669,0.156923,1.158434,-0.024260,0.004777,0.004571
16.610000,9.806530,0.214705,1.174943,-0.025041,0.003217,0.004961
16.620000,9.716188,0.212030,1.160928,-0.023960,0.005105,0.004819
16.630000,9.738863,0.144224,1.164859,-0.024129,0.004506,0.005276
16.640000,9.885291,0.148474,1.161122,-0.023523,0.004784,0.004591
16.650000,9.707521,0.187816,1.119250,-0.023891,0.006470,0.003858
16.660000,9.614472,0.220625,1.164040,-0.024223,0.005517,0.004572
16.670000,9.706997,0.234085,1.132078,-0.024649,0.004857,0.005406
16.680000,9.913689,0.143003,1.221382,-0.024893,0.004336,0.004595
16.690000,9.777525,0.086836,1.166916,-0.024625,0.004086,0.004301
16.700000,9.641921,0.153313,1.179360,-0.024131,0.004591,0.005196
16.710000,9.744043,0.292426,1.119037,-0.024173,0.004847,0.005281
16.720000,9.759785,0.259313,1.125731,-0.024216,0.005102,0.005366
16.730000,9.746037,0.199855,1.150728,-0.024259,0.005358,0.005451
16.740000,9.732289,0.140397,1.175725,-0.024282,0.004941,0.005219
16.750000,9.719203,0.231498,1.141726,-0.024401,0.004130,0.004973
16.760000,9.682817,0.254219,1.123099,-0.024352,0.004727,0.005166
16.770000,9.689251,0.168835,1.169280,-0.023697,0.004657,0.004276
16.780000,9.807258,0.121008,1.200250,-0.024696,0.002776,0.004823
16.790000,9.915243,0.111210,1.178197,-0.025084,0.003319,0.003932
16.800000,9.598367,0.235756,1.158187,-0.024083,0.005166,0.004037
16.810000,9.654294,0.286932,1.095543,-0.023800,0.004229,0.003929
16.820000,9.904880,0.157785,1.176047,-0.023895,0.003373,0.004198
16.830000,9.833941,0.080930,1.151746,-0.023853,0.004406,0.004138
16.840000,9.715883,0.156254,1.199984,-0.023901,0.005010,0.003460
16.850000,9.686883,0.237758,1.155721,-0.023900,0.004924,0.003930
16.860000,9.661681,0.300477,1.120652,-0.023817,0.005133,0.004558
16.870000,9.669065,0.202033,1.164460,-0.023733,0.005343,0.005185
16.880000,9.676448,0.103588,1.208268,-0.023881,0.004825,0.005356
16.890000,9.820795,0.166887,1.148834,-0.024435,0.003417,0.004505
16.900000,9.655190,0.205890,1.137325,-0.024435,0.004559,0.004265
16.910000,9.661253,0.186143,1.145373,-0.024435,0.005701,0.004024
16.920000,9.834463,0.109193,1.172464,-0.024594,0.004896,0.004289
16.930000,9.916246,0.087143,1.180105,-0.024798,0.003531,0.004698
16.940000,9.876404,0.138129,1.161872,-0.024834,0.003549,0.004651
16.950000,9.727935,0.240260,1.137908,-0.024727,0.004551,0.004293
16.960000,9.629343,0.314929,1.127142,-0.024635,0.004336,0.004416
16.970000,9.669657,0.319022,1.137438,-0.024543,0.004122,0.004539
16.980000,9.709971,0.323116,1.147734,-0.024451,0.003907,0.004662
16.990000,9.750285,0.327209,1.158029,-0.024359,0.003692,0.004784
17.000000,9.790599,0.331302,1.168325,-0.024124,0.003706,0.004711
17.010000,9.769660,0.256601,1.175776,-0.023153,0.004893,0.003632
17.020000,9.709204,0.131065,1.181392,-0.023896,0.004039,0.003442
17.030000,9.765394,0.126547,1.145731,-0.024722,0.003441,0.003636
17.040000,9.745655,0.148717,1.144208,-0.024674,0.004510,0.003976
17.050000,9.692529,0.169488,1.156790,-0.024625,0.005579,0.004316
17.060000,9.639403,0.190259,1.169373,-0.024527,0.006194,0.004561
17.070000,9.750831,0.190929,1.156367,-0.024253,0.005188,0.004470
17.080000,9.760609,0.169332,1.155723,-0.024171,0.004650,0.004555
17.090000,9.634079,0.153625,1.169133,-0.024248,0.004496,0.004785
17.100000,9.688269,0.265188,1.135075,-0.024653,0.004058,0.004961
17.110000,9.736009,0.203126,1.111940,-0.024658,0.004268,0.005040
17.120000,9.743516,0.154935,1.114964,-0.023707,0.005747,0.005040
17.130000,9.697341,0.125251,1.152894,-0.024269,0.003944,0.005172
17.140000,9.815591,0.221469,1.173947,-0.024890,0.002012,0.005310
17.150000,9.746015,0.174477,1.136280,-0.024731,0.003353,0.005282
17.160000,9.692053,0.137007,1.184405,-0.024311,0.005789,0.005198
17.170000,9.682085,0.128177,1.212277,-0.024716,0.005639,0.003724
17.180000,9.745582,0.162934,1.161813,-0.024474,0.005517,0.004331
17.190000,9.715031,0.181379,1.139721,-0.024231,0.005396,0.004938
17.200000,9.683996,0.188456,1.141703,-0.024030,0.004536,0.005185
17.210000,9.780528,0.203160,1.135949,-0.024297,0.005070,0.004383
17.220000,9.729466,0.200296,1.141633,-0.024281,0.005191,0.004063
17.230000,9.564507,0.183877,1.156143,-0.023963,0.004874,0.004253
17.240000,9.834586,0.158790,1.177052,-0.023890,0.004170,0.004511
17.250000,9.837205,0.122452,1.166166,-0.024480,0.004871,0.004887
17.260000,9.711869,0.094931,1.171184,-0.023947,0.006276,0.003546
17.270000,9.679295,0.226057,1.130871,-0.024525,0.005902,0.003554
17.280000,9.799604,0.311451,1.161611,-0.023954,0.004876,0.004429
17.290000,9.767925,0.191790,1.130799,-0.023352,0.005690,0.005066
17.300000,9.735584,0.082100,1.186508,-0.024347,0.004691,0.005251
17.310000,9.785847,0.139638,1.158466,-0.024716,0.004016,0.004929
17.320000,9.764743,0.317004,1.107645,-0.024258,0.004228,0.004678
17.330000,9.600965,0.227739,1.123406,-0.024131,0.003975,0.005183
17.340000,9.753728,0.142581,1.190396,-0.024511,0.004072,0.005498
17.350000,9.934993,0.097855,1.189434,-0.024584,0.004965,0.005145
17.360000,9.734343,0.172925,1.152346,-0.023714,0.007296,0.003839
17.370000,9.595276,0.243108,1.129622,-0.023927,0.005596,0.003566
17.380000,9.708089,0.282136,1.126784,-0.024481,0.003841,0.004420
17.390000,9.844940,0.136013,1.121682,-0.023589,0.004355,0.004173
17.400000,9.757316,0.072002,1.165317,-0.024764,0.003145,0.004497
17.410000,9.693974,0.182751,1.158529,-0.025732,0.003034,0.005108
17.420000,9.800066,0.360941,1.159243,-0.025705,0.003227,0.005077
17.430000,9.700757,0.189084,1.112437,-0.024568,0.004718,0.004635
17.440000,9.708233,0.068860,1.217860,-0.024661,0.002944,0.004855
17.450000,9.858468,0.105313,1.161700,-0.024299,0.004802,0.004593
17.460000,9.804088,0.287086,1.131489,-0.023283,0.006261,0.004457
17.470000,9.576220,0.237072,1.123075,-0.022847,0.005903,0.005398
17.480000,9.716297,0.202747,1.145969,-0.021911,0.005093,0.005348
17.490000,9.909072,0.115602,1.186201,-0.025169,0.003382,0.003418
17.500000,9.817225,0.128992,1.157790,-0.024564,0.004524,0.004581
17.510000,9.641381,0.151446,1.181960,-0.024456,0.004953,0.004581
17.520000,9.722891,0.286956,1.148356,-0.024090,0.004529,0.005242
17.530000,9.796272,0.159571,1.125662,-0.024045,0.004852,0.004665
17.540000,9.716261,0.066571,1.164003,-0.024104,0.004890,0.004162
17.550000,9.760319,0.183840,1.154404,-0.023881,0.004028,0.004449
17.560000,9.818648,0.325506,1.156557,-0.024304,0.003395,0.004158
17.570000,9.689172,0.207343,1.133134,-0.024697,0.003715,0.003928
17.580000,9.687062,0.129292,1.174001,-0.023978,0.003336,0.004733
17.590000,9.826192,0.133278,1.153857,-0.024641,0.004433,0.004070
17.600000,9.807721,0.295340,1.126365,-0.025335,0.003987,0.006499
17.610000,9.672051,0.206859,1.144515,-0.025351,0.004986,0.005777
17.620000,9.723018,0.186767,1.156823,-0.023611,0.005257,0.005623
17.630000,9.875935,0.132061,1.176950,-0.023222,0.003469,0.003994
17.640000,9.751949,0.168457,1.135751,-0.024202,0.005005,0.003978
17.650000,9.661597,0.205599,1.165271,-0.024567,0.002663,0.004128
17.660000,9.769502,0.250584,1.142826,-0.024677,0.003207,0.005219
17.670000,9.802356,0.166692,1.132679,-0.024469,0.004270,0.004304
17.680000,9.669882,0.129420,1.132277,-0.024594,0.005001,0.003905
17.690000,9.704099,0.205624,1.138395,-0.024435,0.004037,0.003751
17.700000,9.790523,0.263671,1.144324,-0.024540,0.002810,0.004557
17.710000,9.860912,0.293987,1.187185,-0.024717,0.000861,0.005797
17.720000,9.713641,0.125936,1.185663,-0.024390,0.004134,0.005000
17.730000,9.815629,0.188166,1.135037,-0.024211,0.004069,0.003911
17.740000,9.723521,0.312306,1.081924,-0.024266,0.004397,0.004485
17.750000,9.629519,0.168653,1.157197,-0.023990,0.005158,0.005311
17.760000,9.731414,0.159295,1.147839,-0.024422,0.005371,0.005880
17.770000,9.920226,0.103299,1.201832,-0.025023,0.003347,0.004959
17.780000,9.709542,0.210833,1.118840,-0.023364,0.007424,0.004166
17.790000,9.615512,0.257203,1.172729,-0.024252,0.004548,0.004489
17.800000,9.794559,0.238980,1.153636,-0.023873,0.004967,0.004563
17.810000,9.851360,0.100834,1.169794,-0.023606,0.004092,0.004123
17.820000,9.678979,0.081660,1.130673,-0.024093,0.005614,0.004123
17.830000,9.710570,0.262360,1.122904,-0.023736,0.004750,0.003978
17.840000,9.789861,0.337316,1.115195,-0.024143,0.004512,0.004068
17.850000,9.752491,0.136732,1.175345,-0.024545,0.004318,0.004188
17.860000,9.754276,0.057760,1.198552,-0.024542,0.005015,0.004420
17.870000,9.831518,0.178010,1.190709,-0.024651,0.005065,0.004690
17.880000,9.677237,0.327665,1.076961,-0.024740,0.006846,0.004965
17.890000,9.596427,0.240472,1.140850,-0.024632,0.005966,0.004823
17.900000,9.776244,0.145776,1.152465,-0.024587,0.003225,0.006855
17.910000,9.982261,0.103732,1.212904,-0.024465,0.002201,0.005685
17.920000,9.731638,0.151274,1.102174,-0.024118,0.005151,0.004395
17.930000,9.577416,0.277252,1.174229,-0.024302,0.003695,0.004002
17.940000,9.764079,0.282386,1.099104,-0.024373,0.002777,0.005192
17.950000,9.831269,0.127229,1.174160,-0.024210,0.003340,0.005031
17.960000,9.735861,0.030138,1.152912,-0.024288,0.005333,0.004435
17.970000,9.718722,0.231873,1.166624,-0.023866,0.003580,0.004178
17.980000,9.774560,0.358095,1.115504,-0.023213,0.004886,0.004407
17.990000,9.710466,0.187507,1.153089,-0.023893,0.005805,0.003974
18.000000,9.743108,0.053671,1.180239,-0.024940,0.005154,0.003790
18.010000,9.835860,0.144788,1.189165,-0.024647,0.004421,0.004030
18.020000,9.738340,0.290399,1.082489,-0.023748,0.006222,0.004495
18.030000,9.586119,0.262541,1.151547,-0.023485,0.004667,0.005452
18.040000,9.747418,0.190848,1.112463,-0.024430,0.004101,0.006041
18.050000,10.015888,0.102773,1.182370,-0.023756,0.003569,0.006109
18.060000,9.711031,0.093525,1.136573,-0.024719,0.007855,0.004312
18.070000,9.667747,0.201301,1.178991,-0.025057,0.005514,0.004804
18.080000,9.741268,0.285854,1.125966,-0.024936,0.005282,0.005725
18.090000,9.792213,0.169225,1.146392,-0.023976,0.004925,0.004873
18.100000,9.705336,0.034006,1.146400,-0.023976,0.006226,0.003734
18.110000,9.675468,0.144562,1.155762,-0.024085,0.006961,0.003985
18.120000,9.821189,0.291604,1.137110,-0.024910,0.004644,0.004930
18.130000,9.719110,0.213406,1.147675,-0.025247,0.004975,0.005901
18.140000,9.710934,0.116603,1.166097,-0.024501,0.004652,0.004252
18.150000,9.807400,0.177102,1.180180,-0.023159,0.005135,0.003801
18.160000,9.727316,0.235297,1.120948,-0.023415,0.006441,0.005089
18.170000,9.666942,0.222871,1.154352,-0.024272,0.005384,0.005447
18.180000,9.749597,0.179157,1.147450,-0.024724,0.004382,0.005040
18.190000,9.934472,0.156125,1.158178,-0.024893,0.003612,0.005167
18.200000,9.638039,0.133445,1.136003,-0.024439,0.006420,0.005532
18.210000,9.656835,0.252425,1.180129,-0.022125,0.004177,0.005651
18.220000,9.837834,0.235662,1.136483,-0.023992,0.003386,0.005324
18.230000,9.792327,0.148780,1.149734,-0.024510,0.004169,0.004568
18.240000,9.670136,0.081289,1.133739,-0.025246,0.004509,0.002862
18.250000,9.695025,0.241834,1.140865,-0.025108,0.003764,0.002192
18.260000,9.834472,0.265171,1.149642,-0.023650,0.003031,0.003490
18.270000,9.761745,0.171803,1.159144,-0.023524,0.003709,0.003662
18.280000,9.727802,0.112399,1.183628,-0.024313,0.002963,0.003605
18.290000,9.789007,0.224162,1.137360,-0.024587,0.003322,0.004104
18.300000,9.677328,0.263857,1.107028,-0.024824,0.004296,0.004197
18.310000,9.677417,0.206054,1.143479,-0.024857,0.004038,0.004878
18.320000,9.832614,0.132123,1.164677,-0.023839,0.003312,0.004744
18.330000,9.949754,0.147263,1.163868,-0.022923,0.002875,0.004208
18.340000,9.639870,0.159276,1.137741,-0.023974,0.004821,0.003026
18.350000,9.569327,0.291041,1.150011,-0.024147,0.004265,0.003694
18.360000,9.878916,0.214535,1.153104,-0.024129,0.003980,0.003389
18.370000,9.878378,0.106545,1.132874,-0.023384,0.005759,0.003807
18.380000,9.686901,0.067876,1.169135,-0.023870,0.003971,0.004054
18.390000,9.657352,0.289326,1.129694,-0.024453,0.003989,0.003262
18.400000,9.776933,0.330714,1.145127,-0.024504,0.004234,0.003748
18.410000,9.762424,0.197143,1.127145,-0.024110,0.004383,0.004143
18.420000,9.745074,0.047579,1.208337,-0.023720,0.002713,0.004148
18.430000,9.812729,0.162398,1.162050,-0.023118,0.004062,0.003760
18.440000,9.678151,0.282398,1.123093,-0.023838,0.004526,0.004012
18.450000,9.598779,0.246920,1.124790,-0.024263,0.004648,0.004834
18.460000,9.797403,0.134956,1.165589,-0.023545,0.003618,0.004330
18.470000,9.938142,0.110924,1.172362,-0.023553,0.003818,0.004176
18.480000,9.741690,0.124035,1.145648,-0.023401,0.004749,0.004243
18.490000,9.576132,0.301278,1.142938,-0.024499,0.005087,0.002943
18.500000,9.785711,0.253656,1.139166,-0.024549,0.003718,0.003872
18.510000,9.882716,0.138390,1.103320,-0.023591,0.004356,0.003561
18.520000,9.742939,0.028737,1.169390,-0.023827,0.004223,0.003410
18.530000,9.716871,0.239157,1.140438,-0.023220,0.004715,0.003508
18.540000,9.796254,0.346493,1.170805,-0.023664,0.003553,0.003217
18.550000,9.734874,0.289098,1.117795,-0.023461,0.004775,0.003523
18.560000,9.763667,0.075831,1.194568,-0.022975,0.001959,0.004056
18.570000,9.833342,0.146718,1.149706,-0.023811,0.004097,0.003737
18.580000,9.746970,0.254911,1.138436,-0.023860,0.002746,0.003261
18.590000,9.594779,0.252517,1.118539,-0.023304,0.005618,0.003789
