time_s,accel_x,accel_y,accel_z,gyro_x,gyro_y,gyro_z
0.000000,9.843531,0.325124,0.961600,-0.025351,0.003512,0.001069
0.010000,9.843531,0.325124,0.961600,-0.025351,0.003512,0.001069
0.020000,9.843531,0.325124,0.961600,-0.025351,0.003512,0.001069
0.030000,9.843531,0.325124,0.961600,-0.025351,0.003512,0.001069
0.040000,9.843531,0.325124,0.961600,-0.025351,0.003512,0.001069
0.050000,9.843531,0.325124,0.961600,-0.025351,0.003512,0.001069
0.060000,9.843531,0.325124,0.961600,-0.025351,0.003512,0.001069
0.070000,9.843531,0.325124,0.961600,-0.025351,0.003512,0.001069
0.080000,9.843531,0.325124,0.961600,-0.025351,0.003512,0.001069
0.090000,9.843531,0.325124,0.961600,-0.025351,0.003512,0.001069
0.100000,9.843531,0.325124,0.961600,-0.025351,0.003512,0.001069
0.110000,9.843531,0.325124,0.961600,-0.025351,0.003512,0.001069
0.120000,9.843531,0.325124,0.961600,-0.025351,0.003512,0.001069
0.130000,9.843531,0.325124,0.961600,-0.025351,0.003512,0.001069
0.140000,9.843531,0.325124,0.961600,-0.025351,0.003512,0.001069
0.150000,9.843531,0.325124,0.961600,-0.025351,0.003512,0.001069
0.160000,9.843531,0.325124,0.961600,-0.025351,0.003512,0.001069
0.170000,9.843531,0.325124,0.961600,-0.025351,0.003512,0.001069
0.180000,9.843531,0.325124,0.961600,-0.025351,0.003512,0.001069
0.190000,9.843531,0.325124,0.961600,-0.025351,0.003512,0.001069
0.200000,9.843531,0.325124,0.961600,-0.025351,0.003512,0.001069
0.210000,9.843531,0.325124,0.961600,-0.025351,0.003512,0.001069
0.220000,9.843531,0.325124,0.961600,-0.025351,0.003512,0.001069
0.230000,9.843531,0.325124,0.961600,-0.025351,0.003512,0.001069
0.240000,9.843531,0.325124,0.961600,-0.025351,0.003512,0.001069
0.250000,9.843531,0.325124,0.961600,-0.025351,0.003512,0.001069
0.260000,9.843531,0.325124,0.961600,-0.025351,0.003512,0.001069
0.270000,9.843531,0.325124,0.961600,-0.025351,0.003512,0.001069
0.280000,9.843531,0.325124,0.961600,-0.025351,0.003512,0.001069
0.290000,9.843531,0.325124,0.961600,-0.025351,0.003512,0.001069
0.300000,9.843531,0.325124,0.961600,-0.025351,0.003512,0.001069
0.310000,9.843531,0.325124,0.961600,-0.025351,0.003512,0.001069
0.320000,9.843531,0.325124,0.961600,-0.025351,0.003512,0.001069
0.330000,9.843531,0.325124,0.961600,-0.025351,0.003512,0.001069
0.340000,9.843531,0.325124,0.961600,-0.025351,0.003512,0.001069
0.350000,9.843531,0.325124,0.961600,-0.025351,0.003512,0.001069
0.360000,9.843531,0.325124,0.961600,-0.025351,0.003512,0.001069
0.370000,9.843531,0.325124,0.961600,-0.025351,0.003512,0.001069
0.380000,9.843531,0.325124,0.961600,-0.025351,0.003512,0.001069
0.390000,9.843531,0.325124,0.961600,-0.025351,0.003512,0.001069
0.400000,9.843531,0.325124,0.961600,-0.025351,0.003512,0.001069
0.410000,9.843531,0.325124,0.961600,-0.025351,0.003512,0.001069
0.420000,9.843531,0.325124,0.961600,-0.025351,0.003512,0.001069
0.430000,9.843531,0.325124,0.961600,-0.025351,0.003512,0.001069
0.440000,9.843531,0.325124,0.961600,-0.025351,0.003512,0.001069
0.450000,9.843531,0.325124,0.961600,-0.025351,0.003512,0.001069
0.460000,9.843531,0.325124,0.961600,-0.025351,0.003512,0.001069
0.470000,9.843531,0.325124,0.961600,-0.025351,0.003512,0.001069
0.480000,9.843531,0.325124,0.961600,-0.025351,0.003512,0.001069
0.490000,9.843531,0.325124,0.961600,-0.025351,0.003512,0.001069
0.500000,9.843531,0.325124,0.961600,-0.025351,0.003512,0.001069
0.510000,9.843531,0.325124,0.961600,-0.025351,0.003512,0.001069
0.520000,9.843531,0.325124,0.961600,-0.025351,0.003512,0.001069
0.530000,9.843531,0.325124,0.961600,-0.025351,0.003512,0.001069
0.540000,9.843531,0.325124,0.961600,-0.025351,0.003512,0.001069
0.550000,9.843531,0.325124,0.961600,-0.025351,0.003512,0.001069
0.560000,9.843531,0.325124,0.961600,-0.025351,0.003512,0.001069
0.570000,9.843531,0.325124,0.961600,-0.025351,0.003512,0.001069
0.580000,9.843531,0.325124,0.961600,-0.025351,0.003512,0.001069
0.590000,9.843531,0.325124,0.961600,-0.025351,0.003512,0.001069
0.600000,9.843531,0.325124,0.961600,-0.025351,0.003512,0.001069
0.610000,9.843531,0.325124,0.961600,-0.025351,0.003512,0.001069
0.620000,9.843531,0.325124,0.961600,-0.025351,0.003512,0.001069
0.630000,9.843531,0.325124,0.961600,-0.025351,0.003512,0.001069
0.640000,9.843531,0.325124,0.961600,-0.025351,0.003512,0.001069
0.650000,9.843531,0.325124,0.961600,-0.025351,0.003512,0.001069
0.660000,9.843531,0.325124,0.961600,-0.025351,0.003512,0.001069
0.670000,9.843531,0.325124,0.961600,-0.025351,0.003512,0.001069
0.680000,9.843531,0.325124,0.961600,-0.025351,0.003512,0.001069
0.690000,9.843531,0.325124,0.961600,-0.025351,0.003512,0.001069
0.700000,9.843531,0.325124,0.961600,-0.025351,0.003512,0.001069
0.710000,9.843531,0.325124,0.961600,-0.025351,0.003512,0.001069
0.720000,9.843531,0.325124,0.961600,-0.025351,0.003512,0.001069
0.730000,9.843531,0.325124,0.961600,-0.025351,0.003512,0.001069
0.740000,9.843531,0.325124,0.961600,-0.025351,0.003512,0.001069
0.750000,9.843531,0.325124,0.961600,-0.025351,0.003512,0.001069
0.760000,9.843531,0.325124,0.961600,-0.025351,0.003512,0.001069
0.770000,9.843531,0.325124,0.961600,-0.025351,0.003512,0.001069
0.780000,9.843531,0.325124,0.961600,-0.025351,0.003512,0.001069
0.790000,9.843531,0.325124,0.961600,-0.025351,0.003512,0.001069
0.800000,9.843531,0.325124,0.961600,-0.025351,0.003512,0.001069
0.810000,9.843531,0.325124,0.961600,-0.025351,0.003512,0.001069
0.820000,9.843531,0.325124,0.961600,-0.025351,0.003512,0.001069
0.830000,9.843531,0.325124,0.961600,-0.025351,0.003512,0.001069
0.840000,9.843531,0.325124,0.961600,-0.025351,0.003512,0.001069
0.850000,9.843531,0.325124,0.961600,-0.025351,0.003512,0.001069
0.860000,9.843531,0.325124,0.961600,-0.025351,0.003512,0.001069
0.870000,9.843531,0.325124,0.961600,-0.025351,0.003512,0.001069
0.880000,9.843531,0.325124,0.961600,-0.025351,0.003512,0.001069
0.890000,9.843531,0.325124,0.961600,-0.025351,0.003512,0.001069
0.900000,9.634531,0.406056,0.949528,-0.025351,0.004683,0.000484
0.910000,9.671353,0.240397,0.965727,-0.025136,0.003360,0.002618
0.920000,9.851940,0.096168,0.956406,-0.022624,0.003341,0.003491
0.930000,9.919725,0.104662,1.079046,-0.025875,0.000869,0.000028
0.940000,9.737474,0.194266,0.965142,-0.023960,0.005752,0.000211
0.950000,9.657447,0.345433,0.945617,-0.025504,0.003322,0.000000
0.960000,9.808232,0.300726,0.947149,-0.024772,0.002767,0.000653
0.970000,9.831338,0.115007,1.004679,-0.023938,0.000878,0.001203
0.980000,9.759601,0.071503,0.933792,-0.024628,0.004148,0.000006
0.990000,9.740011,0.286173,0.921615,-0.025824,0.002134,-0.001747
1.000000,9.696838,0.415066,0.969548,-0.024200,0.003122,-0.000990
1.010000,9.714855,0.207342,0.973147,-0.024120,0.003189,-0.000109
1.020000,9.799855,0.086138,1.001218,-0.025221,0.002582,0.000490
1.030000,9.856040,0.195375,1.015189,-0.025259,0.002383,0.000244
1.040000,9.674296,0.391323,0.974451,-0.023383,0.005166,0.001449
1.050000,9.524517,0.315565,0.905641,-0.024161,0.005100,0.001405
1.060000,9.765782,0.240798,0.891077,-0.024421,0.002108,0.002212
1.070000,9.885366,0.145817,1.047897,-0.023534,0.001338,0.000595
1.080000,9.769361,0.137904,0.986504,-0.023920,0.004339,0.000283
1.090000,9.691891,0.277954,0.985630,-0.024090,0.002759,0.000977
1.100000,9.718868,0.359211,0.953696,-0.026200,0.002874,0.000148
1.110000,9.757218,0.205181,1.035040,-0.024542,0.002381,0.000428
1.120000,9.731801,0.100773,0.967247,-0.023824,0.005005,-0.000553
1.130000,9.790139,0.205308,0.962622,-0.024274,0.002986,0.000113
1.140000,9.796597,0.317132,0.982460,-0.026051,0.003050,-0.000082
1.150000,9.694746,0.218553,0.965113,-0.023997,0.004356,0.000611
1.160000,9.785695,0.138923,0.949867,-0.023804,0.002758,0.000801
1.170000,9.863109,0.220670,1.001754,-0.024831,0.002016,0.000703
1.180000,9.797064,0.271631,1.021793,-0.024961,0.003120,0.000848
1.190000,9.654929,0.222164,0.978163,-0.024377,0.004262,0.000530
1.200000,9.750291,0.199066,0.898097,-0.023453,0.003877,0.001701
1.210000,9.901964,0.213754,1.040603,-0.024115,0.000219,0.001233
1.220000,9.744838,0.181937,0.955413,-0.025007,0.004785,0.000172
1.230000,9.729522,0.210162,0.985378,-0.024211,0.002443,0.000627
1.240000,9.828350,0.251971,0.928028,-0.024987,0.002217,0.000726
1.250000,9.827373,0.226565,1.091213,-0.025605,0.000733,0.000479
1.260000,9.678734,0.152097,0.926293,-0.024459,0.004844,0.000044
1.270000,9.714995,0.274566,0.946395,-0.024684,0.002261,0.000361
1.280000,9.811784,0.315499,0.978465,-0.024282,0.002574,0.000473
1.290000,9.759217,0.175306,0.998979,-0.023839,0.003039,0.000222
1.300000,9.724306,0.122939,0.966509,-0.024202,0.003614,0.000709
1.310000,9.785881,0.263444,0.956101,-0.024516,0.002057,0.000916
1.320000,9.699682,0.381066,0.996722,-0.023753,0.003348,0.000916
1.330000,9.654230,0.223604,0.964613,-0.023749,0.003933,0.000916
1.340000,9.782120,0.149415,0.959302,-0.023824,0.003596,0.001041
1.350000,9.869614,0.151251,1.002539,-0.025046,0.001883,-0.000425
1.360000,9.733689,0.251486,0.968671,-0.023773,0.004245,0.001384
1.370000,9.600493,0.306620,0.958299,-0.025681,0.003801,0.000145
1.380000,9.793164,0.286778,0.932850,-0.024160,0.002840,0.001700
1.390000,9.891036,0.152775,1.073712,-0.022743,0.002821,0.001760
1.400000,9.727900,0.092585,0.960967,-0.024562,0.006421,0.000266
1.410000,9.702253,0.267713,0.961847,-0.025364,0.002293,-0.000742
1.420000,9.740466,0.402145,0.948746,-0.025842,0.002807,-0.000717
1.430000,9.773114,0.243249,1.009563,-0.024171,0.001670,0.001299
1.440000,9.813754,0.066124,0.992676,-0.022968,0.004732,0.001080
1.450000,9.843491,0.168685,0.994583,-0.026032,0.001631,0.000647
1.460000,9.763098,0.359278,0.996682,-0.024486,0.003086,0.000890
1.470000,9.606320,0.342827,0.956279,-0.024155,0.004116,0.000465
1.480000,9.762541,0.183091,0.948870,-0.024052,0.002699,0.000490
1.490000,9.942396,0.109696,1.046605,-0.023587,0.000885,0.000408
1.500000,9.773140,0.120350,0.979189,-0.022992,0.003635,0.000568
1.510000,9.640712,0.272871,0.986796,-0.024717,0.002314,-0.000224
1.520000,9.689924,0.374691,0.861412,-0.025351,0.003359,0.000763
1.530000,9.841116,0.245411,1.073410,-0.023000,0.000637,0.000887
1.540000,9.803875,0.043515,0.967437,-0.025821,0.004008,-0.001227
1.550000,9.727154,0.152179,1.002066,-0.025002,0.001825,0.000709
1.560000,9.748126,0.350816,0.942305,-0.025434,0.004255,0.000551
1.570000,9.680585,0.328705,0.996135,-0.025001,0.003549,0.000981
1.580000,9.716922,0.137544,0.965103,-0.024952,0.004433,0.001000
1.590000,9.858963,0.128508,0.979192,-0.024763,0.003224,0.001092
1.600000,9.815164,0.249540,1.000809,-0.024597,0.004298,0.000764
1.610000,9.635465,0.297021,0.960102,-0.024830,0.004143,0.000944
1.620000,9.658853,0.268955,0.922436,-0.025057,0.003434,0.001397
1.630000,9.854755,0.192626,0.998022,-0.025099,0.001650,0.001581
1.640000,9.816210,0.133035,1.044917,-0.024686,0.003618,0.001288
1.650000,9.668095,0.180337,1.015617,-0.025375,0.003357,0.001353
1.660000,9.746682,0.313096,0.906456,-0.025363,0.003489,0.002079
1.670000,9.805674,0.291955,1.026494,-0.025351,0.001191,0.001558
1.680000,9.741778,0.132993,0.928656,-0.024437,0.005486,0.000004
1.690000,9.759814,0.151530,0.989776,-0.025327,0.002565,0.000000
1.700000,9.816789,0.288802,0.918079,-0.024877,0.004471,0.000209
1.710000,9.818346,0.296636,1.060983,-0.024746,0.000956,-0.000601
1.720000,9.674418,0.186385,0.952695,-0.025402,0.004784,0.000577
1.730000,9.792400,0.212254,0.988161,-0.025579,0.002449,0.001527
1.740000,9.840767,0.281466,1.013336,-0.024800,0.003904,0.001262
1.750000,9.705529,0.248871,1.013012,-0.023989,0.004623,0.000989
1.760000,9.718212,0.211238,0.967278,-0.024518,0.003945,0.001069
1.770000,9.813695,0.223835,0.959047,-0.025673,0.001631,0.001661
1.780000,9.785869,0.220121,0.986458,-0.025376,0.002521,0.002138
1.790000,9.642556,0.231522,0.976335,-0.025317,0.004475,0.002020
1.800000,9.739739,0.264053,0.937048,-0.025731,0.002861,0.002492
1.810000,9.904261,0.222612,1.077143,-0.025939,0.001402,0.002336
1.820000,9.711824,0.112444,0.959501,-0.024232,0.006554,0.000561
1.830000,9.641559,0.205874,0.990275,-0.024145,0.002912,0.000601
1.840000,9.754348,0.365740,0.905643,-0.024591,0.003200,0.000320
1.850000,9.778679,0.271477,1.045510,-0.024769,0.003066,0.001626
1.860000,9.743181,0.080691,0.962392,-0.024207,0.004877,0.001854
1.870000,9.721991,0.086090,1.019896,-0.024600,0.001829,0.000451
1.880000,9.799189,0.271852,0.925882,-0.026405,0.001282,-0.000419
1.890000,9.779429,0.386736,1.013653,-0.024699,0.001891,0.001531
1.900000,9.726916,0.183765,0.952237,-0.024217,0.003991,0.000926
1.910000,9.890439,0.120529,0.978586,-0.024958,0.002448,0.000921
1.920000,9.822784,0.174382,0.982942,-0.024500,0.004085,0.000456
1.930000,9.631436,0.258648,0.962817,-0.025150,0.004476,0.000102
1.940000,9.679258,0.317660,0.926674,-0.025159,0.003319,0.001416
1.950000,9.863172,0.211396,1.057026,-0.024292,0.001421,0.001581
1.960000,9.880216,0.039181,1.009556,-0.024943,0.004190,0.000713
1.970000,9.699858,0.111073,1.015319,-0.025325,0.003186,0.000611
1.980000,9.729325,0.381623,0.877892,-0.026107,0.003191,-0.000142
1.990000,9.778680,0.436280,1.030950,-0.025389,0.001611,0.000863
2.000000,9.726076,0.245946,0.935783,-0.024775,0.005555,0.000916
2.010000,9.809355,0.062948,1.038649,-0.024951,0.002267,0.000916
2.020000,9.822301,0.217081,0.990006,-0.024755,0.004605,0.001029
2.030000,9.683589,0.355628,1.020229,-0.024316,0.004287,0.000635
2.040000,9.638409,0.310723,0.968991,-0.025511,0.004632,0.000604
2.050000,9.829543,0.187540,0.991677,-0.024858,0.003007,0.002033
2.060000,9.899771,0.132336,1.029473,-0.024960,0.002830,0.001897
2.070000,9.689086,0.190808,0.973783,-0.023971,0.004727,0.000846
2.080000,9.640551,0.319867,0.905231,-0.024277,0.003932,0.000627
2.090000,9.748839,0.357389,0.954361,-0.023979,0.001479,0.001677
2.100000,9.806350,0.148551,1.003572,-0.024861,0.001680,0.000306
2.110000,9.785977,0.066417,1.036215,-0.024289,0.003132,-0.000283
2.120000,9.742433,0.257769,0.948152,-0.022872,0.004896,0.000951
2.130000,9.761588,0.385650,1.037699,-0.025030,0.001703,-0.000903
2.140000,9.668466,0.271564,0.938389,-0.024179,0.005428,0.000982
2.150000,9.724998,0.140592,0.967658,-0.025006,0.001645,0.002060
2.160000,9.885544,0.161377,0.948597,-0.024767,0.002498,0.001554
2.170000,9.780040,0.269660,1.022048,-0.024960,0.003784,0.001780
2.180000,9.654039,0.269691,0.931841,-0.025057,0.005831,0.002044
2.190000,9.764105,0.233386,0.948247,-0.024847,0.001978,0.001939
2.200000,9.854558,0.171469,1.007850,-0.025273,0.001395,0.002138
2.210000,9.772901,0.141647,1.033588,-0.025433,0.003229,0.001914
2.220000,9.693337,0.209425,0.971879,-0.025026,0.004878,0.001508
2.230000,9.799912,0.257053,0.956254,-0.025383,0.003982,0.001669
2.240000,9.798576,0.203418,1.004483,-0.024462,0.004252,0.001398
2.250000,9.687052,0.113138,0.976189,-0.024214,0.004548,0.000033
2.260000,9.786440,0.209611,0.942380,-0.025299,0.002548,0.000838
2.270000,9.830314,0.313615,1.023445,-0.024832,0.002004,0.000398
2.280000,9.769103,0.229755,1.007452,-0.025766,0.004037,0.000305
2.290000,9.677294,0.137828,0.995372,-0.024615,0.004870,0.001201
2.300000,9.762039,0.212855,0.957835,-0.026031,0.003192,0.001422
2.310000,9.810426,0.316595,1.044854,-0.025087,0.001304,0.001962
2.320000,9.686517,0.256571,0.987959,-0.023612,0.005706,0.000153
2.330000,9.747399,0.168892,0.985238,-0.024403,0.004627,0.000615
2.340000,9.852669,0.189918,0.964889,-0.025754,0.003778,0.001972
2.350000,9.738546,0.254546,0.984309,-0.025338,0.004365,0.001234
2.360000,9.658287,0.292428,0.947449,-0.025174,0.005005,0.001174
2.370000,9.765418,0.269143,0.945682,-0.025667,0.004176,0.001914
2.380000,9.883147,0.183493,1.040883,-0.025431,0.003376,0.002269
2.390000,9.706315,0.140973,0.989496,-0.024459,0.005504,0.001599
2.400000,9.662535,0.261121,0.959492,-0.025290,0.002694,0.000990
2.410000,9.767145,0.386605,0.941008,-0.025289,0.002232,0.000794
2.420000,9.788839,0.299688,1.036505,-0.024093,0.002812,0.001378
2.430000,9.720493,0.072206,0.985229,-0.024662,0.004299,0.001248
2.440000,9.781960,0.126973,0.960105,-0.024917,0.003047,0.001387
2.450000,9.771701,0.342231,0.960126,-0.026328,0.002781,0.002125
2.460000,9.695734,0.374934,0.948954,-0.025336,0.004661,0.002000
2.470000,9.705492,0.203383,0.968154,-0.025224,0.004099,0.002112
2.480000,9.901021,0.093526,0.989545,-0.025029,0.001960,0.001391
2.490000,9.856552,0.165769,1.019858,-0.024481,0.002756,0.001406
2.500000,9.643318,0.262445,0.971728,-0.024646,0.005571,0.001217
2.510000,9.665207,0.295395,0.930164,-0.025267,0.003175,0.002001
2.520000,9.823812,0.223614,1.006424,-0.025117,0.001878,0.001521
2.530000,9.842781,0.080535,1.017271,-0.023724,0.002862,0.001149
2.540000,9.760020,0.096147,1.004926,-0.023325,0.004573,0.000328
2.550000,9.733230,0.295412,0.913752,-0.025532,0.003506,-0.000711
2.560000,9.778241,0.397072,1.033060,-0.024302,0.001731,0.001049
2.570000,9.675014,0.191184,0.959855,-0.024856,0.005091,0.001656
2.580000,9.801222,0.057146,1.056036,-0.025611,0.002553,0.002386
2.590000,9.855376,0.184271,0.987621,-0.024916,0.002883,0.002443
2.600000,9.694739,0.324405,1.044378,-0.026043,0.001762,0.001955
2.610000,9.607314,0.263838,0.956742,-0.025008,0.004778,0.001639
2.620000,9.786629,0.190926,0.959012,-0.024874,0.002314,0.002470
2.630000,9.912191,0.137708,1.012355,-0.025205,0.000198,0.002596
2.640000,9.767452,0.169545,1.017792,-0.024444,0.003696,0.001522
2.650000,9.650241,0.242399,0.932169,-0.025504,0.004520,-0.000111
2.660000,9.756604,0.309480,0.932440,-0.025122,0.002519,0.000840
2.670000,9.775232,0.226807,0.974497,-0.024097,0.003666,0.000375
2.680000,9.771981,0.115686,0.989955,-0.024512,0.003746,0.000293
2.690000,9.783140,0.189229,0.946055,-0.025642,0.003400,0.000056
2.700000,9.813943,0.319502,1.015043,-0.024933,0.003904,0.000329
2.710000,9.700757,0.285238,0.946526,-0.024587,0.006544,0.000932
2.720000,9.678274,0.198611,0.971337,-0.024232,0.004367,0.000595
2.730000,9.886492,0.194456,0.899581,-0.024833,0.003211,0.000458
2.740000,9.825784,0.300133,1.052635,-0.024611,0.002614,0.001045
2.750000,9.623665,0.260474,0.932890,-0.024461,0.005203,0.001852
2.760000,9.751254,0.246482,0.964331,-0.025002,0.002087,0.002218
2.770000,9.815913,0.244276,0.987287,-0.024486,0.002878,0.001451
2.780000,9.768266,0.216061,1.077403,-0.024045,0.003012,0.000898
2.790000,9.664490,0.206594,1.000175,-0.024417,0.005980,0.000396
2.800000,9.757134,0.254933,0.995388,-0.025107,0.003479,0.000978
2.810000,9.788868,0.229719,1.013733,-0.025308,0.002565,0.001304
2.820000,9.683341,0.172543,1.002403,-0.025058,0.004747,0.000352
2.830000,9.711163,0.207355,0.959748,-0.026314,0.004362,0.000578
2.840000,9.833216,0.304630,1.021951,-0.026073,0.002462,0.001641
2.850000,9.787128,0.211371,1.014034,-0.024863,0.005067,0.001634
2.860000,9.711887,0.136447,1.025214,-0.024587,0.004177,0.001796
2.870000,9.754516,0.210617,0.931600,-0.024467,0.003152,0.000752
2.880000,9.821334,0.313731,1.059394,-0.024822,0.000987,0.000846
2.890000,9.692099,0.249311,0.963141,-0.025248,0.005117,0.002339
2.900000,9.755521,0.131821,1.006067,-0.024746,0.003238,0.003203
2.910000,9.920911,0.120189,0.922734,-0.025224,0.003181,0.001654
2.920000,9.784832,0.202563,1.020885,-0.025551,0.002855,0.001328
2.930000,9.646865,0.242769,0.922921,-0.024568,0.005282,0.000127
2.940000,9.772819,0.273502,0.945602,-0.025482,0.001833,0.000654
2.950000,9.870594,0.169500,0.983524,-0.025045,0.001161,0.000487
2.960000,9.769607,0.088455,1.005175,-0.024698,0.002329,0.000021
2.970000,9.653347,0.202963,0.937693,-0.024357,0.004001,0.000525
2.980000,9.741416,0.370439,0.947347,-0.024762,0.002134,0.000469
2.990000,9.766430,0.316156,0.995874,-0.023933,0.002657,0.000556
3.000000,9.745214,0.102139,1.009978,-0.024552,0.002627,0.000764
3.010000,9.765123,0.111344,0.982225,-0.025128,0.002728,0.000846
3.020000,9.739787,0.334879,0.999660,-0.025004,0.003457,0.001305
3.030000,9.648271,0.404023,0.967379,-0.024775,0.004336,0.001409
3.040000,9.636642,0.324102,0.960585,-0.024622,0.005410,0.001256
3.050000,9.895060,0.132151,0.951294,-0.023374,0.004114,0.002283
3.060000,9.920239,0.163614,1.074310,-0.026010,0.001450,-0.000143
3.070000,9.632670,0.252612,0.938856,-0.024450,0.007057,0.000060
3.080000,9.642610,0.387999,0.967673,-0.024837,0.003568,0.001972
3.090000,9.790796,0.293715,0.989766,-0.024524,0.003565,0.002280
3.100000,9.817813,0.099257,1.064521,-0.024332,0.003595,0.001319
3.110000,9.762617,0.102368,0.993021,-0.024717,0.004860,0.002058
3.120000,9.749108,0.321115,0.970038,-0.025080,0.003986,0.001911
3.130000,9.772766,0.388366,0.975745,-0.024597,0.003922,0.001660
3.140000,9.742266,0.197720,0.992636,-0.024723,0.003496,0.002997
3.150000,9.836995,0.085379,0.980415,-0.025838,0.002728,0.003116
3.160000,9.882710,0.205203,1.053003,-0.025511,0.001706,0.002685
3.170000,9.666154,0.304283,0.962356,-0.024284,0.006214,0.001682
3.180000,9.623732,0.261396,1.002356,-0.025131,0.003297,0.002401
3.190000,9.813591,0.136539,0.912548,-0.025043,0.002853,0.003416
3.200000,9.935824,0.102608,1.126706,-0.024744,-0.001420,0.002625
3.210000,9.768789,0.103965,0.951303,-0.024766,0.005801,0.002119
3.220000,9.682875,0.268709,0.973224,-0.025462,0.002354,0.001648
3.230000,9.758123,0.290085,0.900518,-0.026187,0.002721,0.001349
3.240000,9.754001,0.167844,1.016655,-0.024946,0.002395,0.001123
3.250000,9.712257,0.072077,0.948107,-0.024802,0.003312,0.000678
3.260000,9.801564,0.213193,0.994475,-0.025463,0.001413,0.000346
3.270000,9.758681,0.296879,1.004846,-0.025531,0.003242,0.000153
3.280000,9.691947,0.214896,0.994551,-0.024813,0.004050,-0.000251
3.290000,9.707591,0.157412,0.950221,-0.024906,0.004099,-0.000057
3.300000,9.813356,0.232912,1.000968,-0.025630,0.003181,0.000674
3.310000,9.725950,0.287010,0.966603,-0.024887,0.004596,0.000919
3.320000,9.624487,0.237389,0.959671,-0.025684,0.004468,0.001179
3.330000,9.799705,0.221676,0.914067,-0.025367,0.003002,0.001097
3.340000,9.849620,0.224982,1.040270,-0.024654,0.003293,0.001477
3.350000,9.709811,0.201029,0.978275,-0.024734,0.005998,0.000354
3.360000,9.745876,0.256038,1.009510,-0.025012,0.002642,0.001188
3.370000,9.786023,0.273830,0.955221,-0.023732,0.004387,-0.000091
3.380000,9.797461,0.186307,1.060933,-0.023908,0.003717,-0.000595
3.390000,9.650472,0.176324,0.945133,-0.024491,0.005768,0.000458
3.400000,9.758587,0.317425,0.970852,-0.024933,0.004185,0.000377
3.410000,9.846583,0.329067,1.010446,-0.025089,0.003425,0.000806
3.420000,9.782608,0.184913,1.029765,-0.025317,0.003803,0.002027
3.430000,9.769798,0.142484,0.983844,-0.025361,0.003879,0.001018
3.440000,9.781939,0.299949,1.008327,-0.025033,0.002571,0.000528
3.450000,9.717878,0.341005,1.001103,-0.024800,0.002755,0.001758
3.460000,9.679630,0.209064,1.016421,-0.024639,0.002953,0.002697
3.470000,9.769035,0.119788,0.985791,-0.024810,0.002456,0.002600
3.480000,9.915122,0.131545,1.059716,-0.025314,0.000643,0.002443
3.490000,9.663700,0.226003,0.932506,-0.024709,0.006185,0.000854
3.500000,9.643983,0.317574,0.973569,-0.026457,0.002718,0.001905
3.510000,9.832377,0.265033,0.917980,-0.025820,0.002895,0.002437
3.520000,9.853206,0.116270,1.075566,-0.024159,0.001977,0.000484
3.530000,9.753277,0.045240,0.986082,-0.024699,0.001822,0.000947
3.540000,9.659314,0.230838,0.993648,-0.025184,0.001764,0.001319
3.550000,9.727132,0.374330,0.981587,-0.024884,0.001992,0.000683
3.560000,9.765432,0.194233,1.038600,-0.024235,0.001853,0.000258
3.570000,9.771452,0.041447,0.992170,-0.024243,0.004568,-0.000048
3.580000,9.822153,0.163821,0.991954,-0.025380,0.003442,0.000542
3.590000,9.672388,0.363316,0.938908,-0.025109,0.004760,0.001919
3.600000,9.614876,0.322957,0.932145,-0.024548,0.004196,0.001798
3.610000,9.784634,0.176878,0.929710,-0.024938,0.003091,0.001024
3.620000,9.927769,0.100759,1.066431,-0.025045,0.001250,0.001022
3.630000,9.793803,0.146459,0.983720,-0.024453,0.005045,0.000951
3.640000,9.623846,0.332136,1.012597,-0.024539,0.004360,0.000916
3.650000,9.752529,0.385127,0.897256,-0.024166,0.004111,0.000495
3.660000,9.868907,0.199425,1.095236,-0.024434,0.002500,0.000357
3.670000,9.749679,0.026380,0.937792,-0.023260,0.007972,-0.001065
3.680000,9.793648,0.202720,0.979552,-0.025045,0.003393,-0.000785
3.690000,9.751493,0.405216,0.942698,-0.024937,0.003502,0.000278
3.700000,9.722784,0.316114,1.007756,-0.024511,0.002978,0.000267
3.710000,9.782392,0.138256,0.993807,-0.024740,0.003384,0.001033
3.720000,9.862026,0.148033,1.038909,-0.024740,0.002040,0.001796
3.730000,9.788534,0.267438,1.027323,-0.024643,0.002058,0.001374
3.740000,9.613731,0.317068,0.967687,-0.024727,0.004254,0.001155
3.750000,9.691248,0.253694,0.943440,-0.025352,0.002518,0.000840
3.760000,9.865330,0.168935,1.042115,-0.024783,0.001614,0.001200
3.770000,9.797975,0.109499,1.016860,-0.023282,0.004233,0.001151
3.780000,9.736432,0.191773,1.009048,-0.023622,0.003505,0.000743
3.790000,9.736044,0.333055,0.906677,-0.024856,0.003596,-0.000423
3.800000,9.778602,0.253545,1.043542,-0.022582,0.003318,0.000879
3.810000,9.691165,0.084524,0.926410,-0.024165,0.004357,-0.000943
3.820000,9.728845,0.162577,0.981316,-0.023363,0.002590,0.000655
3.830000,9.836734,0.292281,0.974306,-0.025434,0.001985,-0.000559
3.840000,9.712215,0.259158,1.026600,-0.024761,0.003360,-0.000848
3.850000,9.688976,0.144799,0.959767,-0.024762,0.003033,-0.001178
3.860000,9.807902,0.220007,0.974925,-0.024158,0.001957,-0.000375
3.870000,9.789558,0.284353,1.000515,-0.023736,0.003039,0.000067
3.880000,9.714644,0.261598,0.959584,-0.024089,0.004536,0.000699
3.890000,9.727293,0.218889,0.920827,-0.025624,0.003485,0.000675
3.900000,9.851887,0.214001,0.986367,-0.025566,0.002315,0.000792
3.910000,9.764347,0.217255,0.996995,-0.024670,0.003909,0.001307
3.920000,9.689937,0.256898,1.004597,-0.023729,0.004124,0.000895
3.930000,9.822421,0.275205,0.959724,-0.024391,0.003212,0.000458
3.940000,9.837538,0.218094,1.037831,-0.024363,0.003424,0.001165
3.950000,9.677166,0.105847,0.930440,-0.024677,0.004411,0.000863
3.960000,9.688871,0.283730,0.967371,-0.025179,0.002876,0.001040
3.970000,9.773448,0.374127,0.935127,-0.025048,0.003499,-0.000131
3.980000,9.832470,0.240572,1.046956,-0.023824,0.002078,0.000419
3.990000,9.739687,0.080315,0.981188,-0.023837,0.005526,0.002019
4.000000,9.775576,0.146415,0.985601,-0.023972,0.002688,0.000803
4.010000,9.775617,0.354520,1.021416,-0.024503,0.002201,0.000895
4.020000,9.643274,0.326099,0.996302,-0.024612,0.005418,0.002627
4.030000,9.725077,0.173724,1.002843,-0.023898,0.001717,0.002408
4.040000,9.856794,0.096333,0.982508,-0.025078,0.002159,0.001319
4.050000,9.769824,0.173757,0.994168,-0.024905,0.003524,0.000312
4.060000,9.637948,0.284151,0.964867,-0.024282,0.005661,0.000582
4.070000,9.697011,0.316298,0.948253,-0.024282,0.003690,0.001666
4.080000,9.898305,0.179844,1.060385,-0.025087,0.001793,0.000589
4.090000,9.752112,0.023816,0.959171,-0.024872,0.005890,0.001161
4.100000,9.723400,0.190525,0.992161,-0.025369,0.000729,0.001114
4.110000,9.712029,0.423367,0.909985,-0.024950,0.003693,0.000516
4.120000,9.723564,0.333335,1.045663,-0.025186,0.003097,0.001191
4.130000,9.777301,0.055466,0.983687,-0.025059,0.004867,0.000461
4.140000,9.842241,0.061176,1.014748,-0.025589,0.003848,0.000566
4.150000,9.797967,0.281807,1.001435,-0.024732,0.002452,0.000060
4.160000,9.637541,0.371716,0.952928,-0.024687,0.004993,0.001335
4.170000,9.657405,0.263203,0.943164,-0.025045,0.004092,0.002229
4.180000,9.874309,0.135557,0.963072,-0.025020,0.003034,0.001860
4.190000,9.851418,0.111513,1.005069,-0.024496,0.004154,0.001156
4.200000,9.690247,0.226242,0.964097,-0.024500,0.004498,0.000695
4.210000,9.696533,0.349330,0.912822,-0.025214,0.002079,0.001063
4.220000,9.772477,0.296427,0.977352,-0.024698,0.002836,0.001615
4.230000,9.798237,0.100320,1.017013,-0.024168,0.004469,0.000701
4.240000,9.752860,0.128726,1.011884,-0.024704,0.003778,-0.000073
4.250000,9.774329,0.329101,0.938687,-0.025327,0.003606,0.000470
4.260000,9.727257,0.379651,0.997931,-0.024803,0.003818,-0.000090
4.270000,9.638245,0.178275,0.933666,-0.023881,0.004754,0.000058
4.280000,9.845817,0.137281,0.991753,-0.025347,-0.000247,0.000767
4.290000,9.842062,0.239474,1.033107,-0.025135,0.002252,0.000891
4.300000,9.679287,0.305992,1.013798,-0.024557,0.003431,0.000611
4.310000,9.645643,0.271935,0.959061,-0.025318,0.003035,0.000878
4.320000,9.777562,0.236119,0.977702,-0.024984,0.003083,0.001918
4.330000,9.831505,0.188502,1.037367,-0.024486,0.002805,0.001933
4.340000,9.730375,0.187738,0.995634,-0.024852,0.003634,0.001748
4.350000,9.699265,0.241068,1.001559,-0.025545,0.001832,0.002332
4.360000,9.795304,0.281430,1.019306,-0.025307,0.002051,0.001849
4.370000,9.735085,0.171869,0.975737,-0.024740,0.003200,0.001343
4.380000,9.745007,0.184969,0.994812,-0.024432,0.001966,0.001220
4.390000,9.798430,0.278402,0.935078,-0.024734,0.003436,0.000052
4.400000,9.837490,0.267328,1.037061,-0.024663,0.002704,0.001075
4.410000,9.677051,0.135173,0.947861,-0.025376,0.004242,0.001659
4.420000,9.752891,0.155211,0.954192,-0.025364,0.002490,0.001262
4.430000,9.853692,0.289136,0.984613,-0.025351,0.002746,0.001525
4.440000,9.722023,0.292109,1.014245,-0.025053,0.004397,0.001109
4.450000,9.694602,0.174938,0.977138,-0.025198,0.003691,0.001939
4.460000,9.815995,0.157878,0.946664,-0.025168,0.002692,0.002326
4.470000,9.804433,0.211745,0.993712,-0.024886,0.002830,0.001142
4.480000,9.686564,0.249522,0.959815,-0.024533,0.004817,0.001014
4.490000,9.677347,0.240386,0.965036,-0.024679,0.003539,0.001524
4.500000,9.846194,0.189941,1.026672,-0.024656,0.002025,0.001781
4.510000,9.780000,0.108137,1.031968,-0.025045,0.003126,0.001527
4.520000,9.650055,0.164366,1.000335,-0.025351,0.004189,0.001084
4.530000,9.717197,0.328103,0.928028,-0.025854,0.003043,0.001166
4.540000,9.781772,0.330818,1.053403,-0.025453,0.002300,0.001595
4.550000,9.744348,0.124569,0.982300,-0.022444,0.004946,0.001560
4.560000,9.768346,0.083288,1.014648,-0.025281,0.001694,-0.000399
4.570000,9.796448,0.274037,0.944132,-0.025962,0.003596,0.000576
4.580000,9.744739,0.420489,1.032853,-0.026410,0.002625,0.001361
4.590000,9.605221,0.278381,0.986826,-0.024608,0.005357,0.001248
4.600000,9.842724,0.134300,1.001746,-0.025277,0.001248,0.001985
4.610000,9.924797,0.162463,1.029294,-0.025887,0.000584,0.002023
4.620000,9.720150,0.231671,0.981715,-0.025422,0.003701,0.001828
4.630000,9.632998,0.300739,0.937543,-0.025499,0.003818,0.000384
4.640000,9.792960,0.303610,0.949824,-0.024995,0.002461,0.001013
4.650000,9.893551,0.153166,1.014344,-0.024762,0.002106,0.001507
4.660000,9.788529,0.085438,1.011521,-0.024660,0.004765,0.000997
4.670000,9.721727,0.244723,0.935019,-0.025320,0.003047,0.000751
4.680000,9.744750,0.405346,0.997453,-0.025522,0.001183,0.001088
4.690000,9.706467,0.279728,0.947518,-0.024603,0.005100,0.001909
4.700000,9.769431,0.088217,1.008937,-0.024631,0.002723,0.001673
4.710000,9.869210,0.131962,0.945758,-0.023995,0.004353,0.001279
4.720000,9.789170,0.303069,1.037000,-0.024498,0.002477,0.001087
4.730000,9.581419,0.317876,0.918776,-0.024880,0.005361,0.001069
4.740000,9.696323,0.250516,0.964900,-0.024899,0.002447,0.002606
4.750000,9.888544,0.143158,0.981167,-0.025195,0.002568,0.003040
4.760000,9.809641,0.140934,1.071493,-0.025062,0.001504,0.002508
4.770000,9.604234,0.183762,0.973135,-0.024796,0.004622,0.001194
4.780000,9.688249,0.306157,0.945962,-0.025753,0.003319,0.001929
4.790000,9.776647,0.262470,0.985815,-0.025100,0.001978,0.001382
4.800000,9.769052,0.112476,1.017660,-0.024311,0.003096,0.000042
4.810000,9.751710,0.139640,0.977737,-0.024394,0.003330,0.000133
4.820000,9.784561,0.284452,1.015360,-0.024818,0.002305,0.000155
4.830000,9.710998,0.305571,0.988487,-0.025032,0.003877,0.000025
4.840000,9.670633,0.198040,0.996860,-0.025247,0.004133,0.000257
4.850000,9.838973,0.151875,0.946065,-0.025312,0.002980,0.000533
4.860000,9.884390,0.244266,1.079127,-0.024867,0.001570,0.001337
4.870000,9.667402,0.257047,0.939053,-0.024984,0.004758,0.001405
4.880000,9.730293,0.247078,0.992702,-0.026335,0.000635,0.001518
4.890000,9.832994,0.226208,0.899577,-0.025348,0.004254,0.002138
4.900000,9.846128,0.191612,1.074863,-0.024937,0.001179,0.002116
4.910000,9.692467,0.184735,0.961644,-0.025581,0.004197,0.001871
4.920000,9.773471,0.248244,0.984572,-0.025973,0.001868,0.002110
4.930000,9.843036,0.238447,0.983049,-0.025270,0.003238,0.001701
4.940000,9.729064,0.178929,1.002275,-0.024637,0.003310,0.000405
4.950000,9.705864,0.198737,0.945344,-0.024228,0.003314,-0.000264
4.960000,9.796398,0.296326,0.977394,-0.024704,0.002427,0.000495
4.970000,9.784412,0.264711,0.998805,-0.024205,0.003972,0.000305
4.980000,9.685273,0.156183,0.996887,-0.024192,0.005130,0.000032
4.990000,9.710775,0.177233,0.935409,-0.025043,0.003469,0.000966
5.000000,9.804293,0.305695,1.015979,-0.024422,0.002458,0.001069
5.010000,9.666638,0.309997,0.981477,-0.024610,0.005298,0.001550
5.020000,9.701411,0.196731,0.997708,-0.024740,0.004454,0.002271
5.030000,9.812604,0.152088,0.960684,-0.024652,0.004324,0.001029
5.040000,9.801337,0.209107,1.053904,-0.023710,0.002973,0.000000
5.050000,9.609088,0.245985,0.934985,-0.023089,0.006397,0.001165
5.060000,9.669841,0.307358,0.988100,-0.024406,0.003277,-0.000124
5.070000,9.850493,0.203984,0.988467,-0.024332,0.002813,0.000251
5.080000,9.845460,0.090812,1.066174,-0.025894,0.001697,0.000204
5.090000,9.671686,0.149474,0.965113,-0.025575,0.005589,0.000876
5.100000,9.741850,0.346707,0.965383,-0.025078,0.002956,0.000545
5.110000,9.787954,0.353663,0.994855,-0.024865,0.003499,0.000930
5.120000,9.772526,0.141224,1.020130,-0.025051,0.004096,0.001752
5.130000,9.797383,0.069151,0.989658,-0.024995,0.003818,0.000712
5.140000,9.801636,0.257018,0.996611,-0.025851,0.002862,0.000458
5.150000,9.693044,0.379898,0.955157,-0.024611,0.003964,0.000673
5.160000,9.667394,0.273064,1.000518,-0.024895,0.003315,0.001432
5.170000,9.870307,0.103485,0.951967,-0.025234,0.003089,0.002091
5.180000,9.967471,0.107609,1.114476,-0.025457,0.000222,0.001041
5.190000,9.625450,0.213678,0.912986,-0.024206,0.006625,0.001493
5.200000,9.616478,0.362198,0.970712,-0.025355,0.001242,0.001527
5.210000,9.742057,0.336300,0.895951,-0.025479,0.001860,0.001527
5.220000,9.841421,0.106760,1.063354,-0.024822,0.001426,0.001081
5.230000,9.765479,0.027550,0.974158,-0.023733,0.003341,-0.001370
5.240000,9.724138,0.206218,1.000293,-0.025670,0.001791,0.000051
5.250000,9.720673,0.414462,0.970035,-0.025809,0.002466,0.002184
5.260000,9.692172,0.252033,0.992432,-0.025091,0.002931,0.001566
5.270000,9.760223,0.083903,0.983750,-0.024250,0.004662,0.000780
5.280000,9.843776,0.172993,1.024755,-0.025293,0.002877,0.000924
5.290000,9.680373,0.326969,0.971951,-0.025687,0.004183,0.001588
5.300000,9.634040,0.309734,0.958057,-0.025086,0.003981,0.001102
5.310000,9.789404,0.217419,0.933426,-0.025570,0.003771,0.001666
5.320000,9.916858,0.138174,1.067836,-0.026186,0.002747,0.002362
5.330000,9.757233,0.114476,0.967590,-0.024652,0.005774,0.001207
5.340000,9.651112,0.295773,0.989412,-0.025139,0.002854,0.001059
5.350000,9.757877,0.349556,0.903439,-0.025808,0.003187,0.002140
5.360000,9.791211,0.224705,1.057122,-0.025657,0.000629,0.002441
5.370000,9.750913,0.059669,0.965363,-0.024737,0.004189,0.000592
5.380000,9.835062,0.209889,1.006319,-0.025809,0.001772,0.000489
5.390000,9.772449,0.331328,0.994710,-0.025850,0.003237,0.000857
5.400000,9.697613,0.262289,0.986431,-0.025597,0.003403,0.001527
5.410000,9.727198,0.175937,0.942305,-0.024885,0.004051,0.001382
5.420000,9.827883,0.216688,1.002810,-0.025071,0.001821,0.001196
5.430000,9.757923,0.239620,1.005003,-0.024740,0.002818,0.001222
5.440000,9.663430,0.224461,0.993012,-0.024896,0.003414,0.000915
5.450000,9.770565,0.221404,0.964361,-0.025525,0.002509,0.001500
5.460000,9.830244,0.209317,1.065170,-0.025387,0.001357,0.002454
5.470000,9.695173,0.151310,0.958340,-0.023784,0.006351,0.001064
5.480000,9.758334,0.254503,0.991850,-0.025284,0.003744,0.000995
5.490000,9.781562,0.279373,0.933448,-0.025786,0.003679,0.001976
5.500000,9.772635,0.161794,1.019618,-0.024530,0.003306,0.000475
5.510000,9.653729,0.129549,0.946131,-0.023862,0.005659,0.000298
5.520000,9.769373,0.290773,0.997402,-0.024715,0.002847,0.000226
5.530000,9.820193,0.310533,1.047828,-0.025572,0.002887,0.000806
5.540000,9.724779,0.171304,0.995811,-0.025073,0.005505,0.001055
5.550000,9.753943,0.134744,0.980412,-0.024186,0.002443,-0.000056
5.560000,9.772268,0.309143,0.968703,-0.025609,0.002777,-0.000305
5.570000,9.700526,0.310982,0.976721,-0.025084,0.003779,0.000525
5.580000,9.745430,0.198719,0.969979,-0.025127,0.002767,0.002500
5.590000,9.864832,0.162589,0.991804,-0.025243,0.002862,0.002395
5.600000,9.832024,0.197464,1.018816,-0.025504,0.002844,0.001489
5.610000,9.688506,0.247048,0.973602,-0.025274,0.003668,0.000992
5.620000,9.693741,0.339251,0.953264,-0.024128,0.004153,0.000794
5.630000,9.858716,0.234703,1.059879,-0.023901,0.003282,0.000661
5.640000,9.748670,0.026810,0.966197,-0.024661,0.006080,0.001432
5.650000,9.755461,0.134972,0.971571,-0.024888,0.002566,-0.000397
5.660000,9.737926,0.437038,0.921569,-0.025656,0.003494,0.000157
5.670000,9.733914,0.376990,1.036728,-0.025656,0.002497,0.000608
5.680000,9.790619,0.088164,0.973271,-0.025585,0.005186,0.001867
5.690000,9.828837,0.094727,1.023433,-0.025198,0.002181,0.001013
5.700000,9.740945,0.311526,0.983336,-0.025155,0.003446,0.000348
5.710000,9.586457,0.392213,0.964694,-0.025045,0.003410,0.000884
5.720000,9.687256,0.258981,0.951041,-0.024654,0.002097,0.001203
5.730000,9.906974,0.118923,1.033805,-0.024397,0.001052,-0.000368
5.740000,9.802776,0.081431,1.006949,-0.025101,0.003748,0.000403
5.750000,9.692522,0.239307,0.965019,-0.024617,0.004611,0.000794
5.760000,9.687536,0.430780,0.917796,-0.024535,0.004023,0.000615
5.770000,9.753977,0.246546,1.047935,-0.024318,0.002445,0.000907
5.780000,9.785677,-0.042362,0.982612,-0.024453,0.004507,0.001006
5.790000,9.817450,0.090229,0.992644,-0.024709,0.003729,0.000184
5.800000,9.787600,0.391536,0.967149,-0.025598,0.003820,0.000123
5.810000,9.618686,0.378895,0.989949,-0.024740,0.003662,0.000919
5.820000,9.768891,0.109380,0.964543,-0.024914,0.002064,0.001954
5.830000,9.912970,0.094756,0.993509,-0.025286,0.001333,0.001505
5.840000,9.747676,0.240674,1.022902,-0.025747,0.003871,0.001468
5.850000,9.606651,0.298724,0.936640,-0.025354,0.006285,0.001758
5.860000,9.723680,0.307896,0.958821,-0.025223,0.002185,0.001952
5.870000,9.873768,0.197039,1.009715,-0.025575,0.002677,0.002184
5.880000,9.838634,0.078565,1.025523,-0.025090,0.003952,0.000966
5.890000,9.753461,0.207915,0.946631,-0.025477,0.004688,0.001016
5.900000,9.754140,0.392197,0.948084,-0.025136,0.002506,0.001194
5.910000,9.685739,0.271538,0.965389,-0.025132,0.003786,0.001520
5.920000,9.743573,0.058310,0.980187,-0.024938,0.003084,0.000879
5.930000,9.862868,0.186479,0.973287,-0.024379,0.001680,0.000042
5.940000,9.771920,0.342548,1.048670,-0.024677,0.003392,-0.000943
5.950000,9.671723,0.226593,0.975911,-0.024882,0.005506,0.000064
5.960000,9.728087,0.190760,0.998621,-0.025348,0.003375,0.001215
5.970000,9.803461,0.238890,0.986362,-0.024332,0.004265,-0.000137
5.980000,9.751344,0.261491,1.023974,-0.024258,0.003450,0.000281
5.990000,9.621465,0.188472,0.949752,-0.025536,0.004345,0.001560
6.000000,9.802030,0.254870,0.965510,-0.024797,0.002539,0.001613
6.010000,9.798467,0.262678,0.998001,-0.024890,0.002633,0.001830
6.020000,9.754947,0.185400,0.994532,-0.024165,0.003189,0.001300
6.030000,9.783646,0.246054,0.968075,-0.024025,0.001296,0.001572
6.040000,9.772125,0.266557,1.018024,-0.025010,0.003173,0.001908
6.050000,9.705081,0.138213,0.994857,-0.023972,0.003990,0.001289
6.060000,9.702540,0.159631,0.973426,-0.024188,0.004177,-0.000116
6.070000,9.804620,0.320521,0.955243,-0.025850,0.002891,-0.000142
6.080000,9.770850,0.286777,1.041915,-0.026535,0.002287,-0.000231
6.090000,9.752612,0.077742,0.939806,-0.025304,0.003914,0.000329
6.100000,9.860989,0.153164,0.954316,-0.024907,0.002751,0.001013
6.110000,9.748894,0.371861,0.970362,-0.024893,0.002451,0.000778
6.120000,9.631549,0.327004,0.937767,-0.024007,0.004383,0.000804
6.130000,9.769528,0.201187,0.986670,-0.024935,0.003124,0.001915
6.140000,9.846254,0.124020,0.967468,-0.025339,0.003874,0.001209
6.150000,9.715097,0.163332,0.946942,-0.024921,0.005794,0.000792
6.160000,9.655703,0.250440,0.949772,-0.024425,0.006422,0.000523
6.170000,9.748241,0.355051,0.968024,-0.024055,0.003008,0.000532
6.180000,9.804138,0.220375,1.004842,-0.024905,0.003219,0.000381
6.190000,9.748811,0.024128,0.986795,-0.025279,0.004461,0.001350
6.200000,9.746259,0.178062,0.948326,-0.025283,0.003567,0.001494
6.210000,9.719004,0.432708,0.977396,-0.025912,0.002512,0.001035
6.220000,9.711281,0.308878,1.006897,-0.025065,0.002849,0.000616
6.230000,9.819904,0.053684,1.039822,-0.025342,0.002334,0.001139
6.240000,9.854687,0.102750,1.001864,-0.025533,0.003002,0.000264
6.250000,9.763534,0.341789,1.036899,-0.025235,0.002938,0.000806
6.260000,9.483748,0.368905,0.898138,-0.024328,0.006819,0.000046
6.270000,9.740395,0.264743,0.969511,-0.025118,0.002981,0.001952
6.280000,9.937457,0.156699,1.003873,-0.024763,0.003405,0.001691
6.290000,9.824501,0.095618,1.047363,-0.025045,0.003984,0.001846
6.300000,9.701286,0.210288,0.950291,-0.025045,0.004132,0.001994
6.310000,9.686235,0.364291,0.939091,-0.025036,0.004203,0.002133
6.320000,9.767416,0.278741,1.001013,-0.024644,0.002895,0.002081
6.330000,9.792630,0.033206,0.999021,-0.024490,0.004115,0.001905
6.340000,9.798317,0.137184,0.970566,-0.024936,0.003376,0.001152
6.350000,9.752540,0.382749,0.989745,-0.025585,0.003578,0.001303
6.360000,9.668916,0.338213,0.969916,-0.025373,0.003926,0.001091
6.370000,9.763320,0.140449,0.981951,-0.024559,0.003053,0.000778
6.380000,9.885815,0.161145,0.981908,-0.024950,0.003086,0.001028
6.390000,9.742573,0.271770,1.022989,-0.026052,0.002933,0.001435
6.400000,9.626112,0.276169,0.932613,-0.025935,0.003302,0.001195
6.410000,9.701959,0.289157,0.926235,-0.025391,0.001839,0.001487
6.420000,9.867286,0.207268,1.022658,-0.023540,0.002133,0.000471
6.430000,9.824528,0.104109,1.030015,-0.024579,0.006071,0.001661
6.440000,9.728197,0.168413,0.995764,-0.024157,0.003971,0.000648
6.450000,9.757521,0.311854,0.947710,-0.024533,0.003971,0.001150
6.460000,9.711386,0.245138,1.018884,-0.025132,0.001969,0.001253
6.470000,9.697676,0.084576,0.944601,-0.024391,0.003438,0.001338
6.480000,9.806540,0.149536,0.979290,-0.024783,0.001009,0.001193
6.490000,9.803586,0.299128,0.989348,-0.025138,0.002998,0.000856
6.500000,9.727651,0.205955,0.991828,-0.024903,0.004295,0.000835
6.510000,9.739555,0.158880,0.977518,-0.025179,0.003077,0.001268
6.520000,9.816359,0.246076,1.007056,-0.025217,0.001375,0.001432
6.530000,9.742104,0.297519,1.024150,-0.025130,0.003193,0.001034
6.540000,9.662880,0.226554,0.992267,-0.024915,0.004465,0.001141
6.550000,9.806086,0.195194,0.947482,-0.023432,0.003382,0.001701
6.560000,9.832616,0.213625,1.031163,-0.025190,0.002499,-0.000719
6.570000,9.724842,0.192508,0.938549,-0.023736,0.004800,-0.000185
6.580000,9.730509,0.293724,0.986076,-0.026256,0.001765,0.000521
6.590000,9.812058,0.284041,0.962197,-0.025746,0.003971,0.002038
6.600000,9.799760,0.154397,1.056535,-0.023999,0.004474,0.001107
6.610000,9.669377,0.098515,0.940076,-0.024238,0.006934,0.000472
6.620000,9.734726,0.322031,0.966645,-0.025351,0.002178,0.000526
6.630000,9.775955,0.373597,0.985930,-0.025223,0.001010,0.000241
6.640000,9.736481,0.232148,1.024446,-0.024771,0.003496,0.000015
6.650000,9.810955,0.090078,0.973596,-0.024808,0.003395,0.000068
6.660000,9.780825,0.281875,0.994121,-0.025373,0.003180,0.000714
6.670000,9.664855,0.376844,0.956807,-0.025102,0.004372,0.001069
6.680000,9.678244,0.278395,0.974049,-0.025441,0.002989,0.001733
6.690000,9.852695,0.143865,0.968608,-0.025962,0.002049,0.003005
6.700000,9.901765,0.119289,1.072191,-0.025223,0.001276,0.002374
6.710000,9.672456,0.185544,0.953831,-0.024662,0.003982,0.001371
6.720000,9.703768,0.272437,0.943273,-0.024377,0.006476,0.000833
6.730000,9.806640,0.312868,0.981531,-0.024914,0.004237,0.002087
6.740000,9.798957,0.051838,1.042502,-0.024314,0.004109,0.001370
6.750000,9.778731,0.003619,0.976708,-0.025405,0.003538,0.001222
6.760000,9.725343,0.278874,0.952583,-0.025789,0.002643,0.001222
6.770000,9.690131,0.401920,0.991037,-0.024843,0.002946,0.000530
6.780000,9.732124,0.200053,0.978372,-0.024389,0.004370,0.000413
6.790000,9.820208,0.043547,1.027301,-0.024726,0.001786,0.000750
6.800000,9.838473,0.211440,1.007568,-0.025008,0.003197,0.000573
6.810000,9.625252,0.341571,0.960436,-0.025567,0.003604,0.000916
6.820000,9.641727,0.315456,0.945896,-0.025723,0.002404,0.001779
6.830000,9.837569,0.206591,0.989482,-0.025296,0.002051,0.002443
6.840000,9.863463,0.085852,1.068391,-0.024534,0.002543,0.001625
6.850000,9.747667,0.112901,0.977318,-0.026144,0.004482,0.001550
6.860000,9.683359,0.383078,0.931069,-0.025616,0.004588,0.001806
6.870000,9.753271,0.400618,1.003059,-0.024529,0.002374,0.001011
6.880000,9.770601,0.095096,0.966503,-0.024130,0.004273,0.001221
6.890000,9.791857,0.060091,0.990521,-0.024514,0.003383,0.000063
6.900000,9.849127,0.295759,0.929964,-0.025901,0.003940,0.001252
6.910000,9.758333,0.367850,1.002736,-0.025390,0.004962,0.001508
6.920000,9.679671,0.195064,0.951387,-0.025093,0.004129,0.001727
6.930000,9.844154,0.155406,1.013310,-0.024641,0.001692,0.001508
6.940000,9.831070,0.225246,1.026673,-0.024161,0.003647,0.000366
6.950000,9.694526,0.271034,0.998965,-0.024106,0.005584,0.000394
6.960000,9.659090,0.284144,0.924086,-0.022971,0.006605,0.001311
6.970000,9.801755,0.280827,0.963827,-0.024731,0.002528,0.001356
6.980000,9.812805,0.201778,0.994847,-0.024787,0.002431,0.001455
6.990000,9.744998,0.156245,1.000970,-0.024408,0.003107,0.001313
7.000000,9.760054,0.248318,0.974793,-0.024557,0.003577,0.001291
7.010000,9.738818,0.295877,1.068192,-0.024413,0.003579,0.000829
7.020000,9.700200,0.097136,0.950403,-0.023264,0.005660,0.000346
7.030000,9.738994,0.161892,0.999626,-0.024288,0.001881,0.001124
7.040000,9.785387,0.332491,0.937944,-0.024435,0.003357,0.001679
7.050000,9.786147,0.275004,1.044131,-0.026839,0.000795,0.000000
7.060000,9.691689,0.121653,0.921817,-0.025831,0.004574,0.000052
7.070000,9.786653,0.205697,0.978457,-0.024648,0.001328,0.000469
7.080000,9.769263,0.318816,0.992345,-0.024945,0.002402,0.000271
7.090000,9.701849,0.261305,1.001512,-0.023921,0.003681,0.000972
7.100000,9.763382,0.164137,0.983272,-0.024328,0.002902,0.000880
7.110000,9.818888,0.164787,1.022422,-0.024404,0.002759,0.000682
7.120000,9.751851,0.201706,0.975803,-0.023749,0.003846,0.000920
7.130000,9.687887,0.271044,0.955684,-0.024280,0.003581,0.000704
7.140000,9.796201,0.279634,0.936911,-0.024903,0.003227,0.000773
7.150000,9.864315,0.155381,1.051921,-0.024470,0.002822,0.001377
7.160000,9.740426,0.044725,0.937981,-0.023557,0.006101,0.000560
7.170000,9.752552,0.232326,0.974035,-0.023629,0.001229,0.000964
7.180000,9.702088,0.424828,0.957426,-0.025838,0.002039,-0.000520
7.190000,9.743647,0.246567,1.043214,-0.024427,0.002601,0.000445
7.200000,9.815058,0.034856,0.981301,-0.024007,0.002908,-0.000287
7.210000,9.816653,0.138003,0.978085,-0.024666,0.003040,0.000108
7.220000,9.728200,0.336816,0.990585,-0.024509,0.003171,0.000546
7.230000,9.629028,0.364200,0.957345,-0.025061,0.003989,0.000264
7.240000,9.754101,0.209488,0.967051,-0.024123,0.001615,0.000100
7.250000,9.880514,0.108083,1.031383,-0.024315,0.001469,0.000061
7.260000,9.748034,0.146069,1.023400,-0.024420,0.003472,-0.000125
7.270000,9.639358,0.302424,0.964718,-0.024108,0.003211,0.000197
7.280000,9.696181,0.385787,0.940184,-0.024516,0.002228,0.000347
7.290000,9.816864,0.217890,1.033430,-0.023979,0.002752,0.000241
7.300000,9.804874,0.006796,1.001388,-0.023897,0.004479,-0.000181
7.310000,9.741858,0.188081,0.969061,-0.024904,0.003106,-0.001038
7.320000,9.728846,0.428209,0.977617,-0.024441,0.003453,-0.000465
7.330000,9.633837,0.362961,0.999272,-0.023426,0.004379,0.000408
7.340000,9.749781,0.113083,0.987791,-0.022915,0.003978,0.000158
7.350000,9.900706,0.092999,0.995231,-0.024789,0.001360,-0.000736
7.360000,9.814388,0.274657,1.033234,-0.025603,0.001128,-0.000270
7.370000,9.647083,0.347626,0.917087,-0.023501,0.005145,0.000889
7.380000,9.707080,0.303321,0.939614,-0.024093,0.003620,0.000764
7.390000,9.872073,0.180982,0.971703,-0.024023,0.002842,0.000717
7.400000,9.850988,0.113414,1.045175,-0.024351,0.002580,0.000666
7.410000,9.699112,0.195430,0.978987,-0.024328,0.005057,0.001175
7.420000,9.727104,0.334723,0.938975,-0.024279,0.003814,0.001073
7.430000,9.777231,0.273988,1.001222,-0.026059,0.003022,0.000458
7.440000,9.755501,0.076275,0.980470,-0.026037,0.003079,0.001054
7.450000,9.790866,0.144436,0.982974,-0.025304,0.002765,0.001074
7.460000,9.770460,0.306326,0.983623,-0.025537,0.002291,0.000916
7.470000,9.725146,0.304570,0.990451,-0.025037,0.003281,0.000297
7.480000,9.642721,0.177698,0.976984,-0.025113,0.004836,0.000263
7.490000,9.760735,0.157126,0.957192,-0.024764,0.002308,0.000884
7.500000,9.860387,0.251394,1.064694,-0.024708,0.001391,0.001509
7.510000,9.677766,0.252423,0.975624,-0.023780,0.006295,0.000979
7.520000,9.695809,0.210542,0.985252,-0.024486,0.003282,0.002216
7.530000,9.791819,0.204637,0.933587,-0.024166,0.004622,0.001259
7.540000,9.807630,0.198185,1.029689,-0.024874,0.002245,0.002337
7.550000,9.716124,0.206149,0.963475,-0.024085,0.005065,0.001685
7.560000,9.753325,0.240957,0.962079,-0.025493,0.002801,0.000216
7.570000,9.844806,0.211461,0.998243,-0.024906,0.002583,0.000305
7.580000,9.752650,0.141725,0.976257,-0.024824,0.004253,0.000640
7.590000,9.720963,0.215563,0.941357,-0.025277,0.003865,0.000820
7.600000,9.793150,0.323591,0.951324,-0.025306,0.002902,0.001059
7.610000,9.801125,0.279476,1.031411,-0.025310,0.002344,0.000664
7.620000,9.745651,0.123953,0.992434,-0.024218,0.004405,0.000798
7.630000,9.741850,0.151732,0.947721,-0.025553,0.003862,0.000650
7.640000,9.785899,0.333767,0.996207,-0.025664,0.001338,0.000611
7.650000,9.742540,0.373003,0.989459,-0.025507,0.004508,0.001657
7.660000,9.685435,0.214198,0.980921,-0.025023,0.004075,0.001840
7.670000,9.856060,0.128071,0.981178,-0.024042,0.002247,0.001878
7.680000,9.811222,0.212212,1.024760,-0.023740,0.003440,0.000559
7.690000,9.632810,0.292721,0.960000,-0.024658,0.004866,0.001843
7.700000,9.657894,0.299749,0.959399,-0.024977,0.002245,0.002230
7.710000,9.810259,0.213244,1.020565,-0.025145,0.000650,0.000991
7.720000,9.830436,0.106389,1.051199,-0.024589,0.002240,0.001529
7.730000,9.700816,0.155307,0.987275,-0.024627,0.004471,0.000916
7.740000,9.699873,0.334108,0.914161,-0.025105,0.004342,0.000544
7.750000,9.765509,0.382925,1.007154,-0.024566,0.003240,0.000210
7.760000,9.712434,0.174446,0.950513,-0.024831,0.005187,0.000921
7.770000,9.808079,0.060497,1.012744,-0.024442,0.003123,0.001584
7.780000,9.827817,0.215045,0.944735,-0.025742,0.003220,0.000883
7.790000,9.722589,0.383494,1.026365,-0.025265,0.003778,0.001461
7.800000,9.612520,0.287722,0.953803,-0.024743,0.005787,0.001525
7.810000,9.735653,0.188179,0.962295,-0.025099,0.003532,0.001288
7.820000,9.961797,0.110725,1.010924,-0.024831,0.004098,0.002027
7.830000,9.758264,0.181842,1.013582,-0.024493,0.006931,0.002173
7.840000,9.614735,0.266108,0.927419,-0.024984,0.006160,0.001721
7.850000,9.760357,0.298365,0.930168,-0.025656,0.002521,0.001833
7.860000,9.830784,0.198212,1.010338,-0.025276,0.001469,0.001941
7.870000,9.799800,0.092060,1.036016,-0.024587,0.003447,0.001673
7.880000,9.754355,0.162873,0.984784,-0.025185,0.004316,0.000850
7.890000,9.763562,0.324229,1.001156,-0.025709,0.002203,0.000848
7.900000,9.685342,0.312302,0.979059,-0.025010,0.003430,0.000916
7.910000,9.682243,0.169132,0.995151,-0.024525,0.003166,0.001239
7.920000,9.851307,0.124078,0.946238,-0.024804,0.003460,0.001190
7.930000,9.842419,0.222656,1.031226,-0.025045,0.003886,0.000911
7.940000,9.636067,0.292071,0.948648,-0.024389,0.005240,0.000370
7.950000,9.691453,0.269375,0.974769,-0.023983,0.004304,0.000604
7.960000,9.814300,0.188184,0.926997,-0.024745,0.003429,0.000801
7.970000,9.855410,0.183025,1.085768,-0.024893,0.001441,0.001918
7.980000,9.672017,0.193357,0.976482,-0.025001,0.006195,0.001374
7.990000,9.713046,0.254186,0.944122,-0.025098,0.003313,0.000932
8.000000,9.798637,0.261303,0.946093,-0.023735,0.003857,-0.000458
8.010000,9.722227,0.192169,1.001337,-0.024058,0.003698,-0.000164
8.020000,9.718049,0.165830,0.965822,-0.025258,0.004434,0.000939
8.030000,9.813606,0.262468,0.964446,-0.025145,0.003351,0.001817
8.040000,9.816004,0.298686,1.009472,-0.025128,0.002439,0.001437
8.050000,9.686717,0.218249,0.991004,-0.024325,0.003830,0.000660
8.060000,9.703415,0.183090,0.943728,-0.025268,0.003907,0.000355
8.070000,9.840718,0.268883,0.970128,-0.024860,0.001192,0.000534
8.080000,9.754307,0.312139,1.025567,-0.024811,0.002719,0.000862
8.090000,9.673953,0.169026,0.998310,-0.025437,0.003751,0.001733
8.100000,9.816521,0.144870,0.938047,-0.024037,0.003965,0.001099
8.110000,9.842353,0.249267,0.992248,-0.023974,0.003065,0.000764
8.120000,9.704719,0.280082,0.993043,-0.023862,0.003628,0.000764
8.130000,9.666989,0.237338,0.973188,-0.024908,0.003182,0.000675
8.140000,9.831255,0.198861,0.955237,-0.026265,0.002268,0.002425
8.150000,9.826101,0.185579,1.027144,-0.024932,0.000675,0.001599
8.160000,9.664233,0.177422,0.972840,-0.024033,0.004598,0.000756
8.170000,9.700874,0.250213,0.944465,-0.024990,0.002027,0.000169
8.180000,9.805076,0.317318,0.983195,-0.024762,0.001308,-0.000545
8.190000,9.790453,0.209137,1.018399,-0.024419,0.003214,-0.000374
8.200000,9.732899,0.115610,1.011778,-0.024753,0.003460,0.000354
8.210000,9.751539,0.181173,0.947607,-0.025212,0.002957,0.000680
8.220000,9.781135,0.332471,0.995387,-0.025541,0.001802,0.001276
8.230000,9.618979,0.294048,0.951564,-0.024798,0.004932,0.002415
8.240000,9.776418,0.137961,1.015110,-0.024978,0.002697,0.002727
8.250000,9.936742,0.098805,0.955161,-0.026050,0.002712,0.002892
8.260000,9.792547,0.202116,1.066452,-0.025953,0.002005,0.001671
8.270000,9.589163,0.267346,0.938994,-0.024441,0.005483,0.000159
8.280000,9.684389,0.308581,0.940369,-0.025672,0.002016,0.001069
8.290000,9.841876,0.224129,0.955649,-0.025954,0.002580,0.001069
8.300000,9.806883,0.114855,1.054336,-0.025227,0.004166,0.000866
8.310000,9.692872,0.147399,0.969358,-0.024805,0.006352,0.000125
8.320000,9.741277,0.308089,0.948924,-0.025246,0.003003,0.000456
8.330000,9.747260,0.366498,0.981762,-0.024896,0.002786,0.000020
8.340000,9.739269,0.197661,1.014874,-0.025187,0.003301,0.000227
8.350000,9.801559,0.102676,0.976578,-0.025165,0.004056,0.001426
8.360000,9.826698,0.223536,0.993064,-0.025978,0.001846,0.002159
8.370000,9.690259,0.350854,0.964243,-0.025194,0.003999,0.001663
8.380000,9.614609,0.296340,0.945798,-0.024620,0.004539,0.001168
8.390000,9.818261,0.146466,0.942100,-0.025358,0.002864,0.001968
8.400000,9.922132,0.143632,1.040997,-0.025412,0.001313,0.002321
8.410000,9.703665,0.197272,0.998593,-0.025203,0.005500,0.001257
8.420000,9.662468,0.288352,0.970607,-0.024624,0.003243,0.001200
8.430000,9.722209,0.309663,0.891320,-0.025417,0.003591,0.000863
8.440000,9.787043,0.217603,1.028387,-0.025729,0.001157,0.001532
8.450000,9.746501,0.117952,0.976100,-0.024525,0.005011,0.000576
8.460000,9.757201,0.190618,0.977037,-0.025093,0.003618,0.000495
8.470000,9.787323,0.315467,0.978998,-0.024282,0.003301,0.000498
8.480000,9.678167,0.300396,1.005650,-0.024541,0.003703,0.000758
8.490000,9.703606,0.186395,0.979959,-0.025271,0.004526,0.001223
8.500000,9.839615,0.178697,0.966479,-0.025400,0.003335,0.000300
8.510000,9.818428,0.242102,1.014374,-0.025294,0.002457,0.001035
8.520000,9.645676,0.237784,0.969927,-0.025440,0.002972,0.002099
8.530000,9.698100,0.218838,0.929457,-0.024962,0.002932,0.001424
8.540000,9.866240,0.206468,0.962012,-0.024855,0.002214,0.001413
8.550000,9.821896,0.184277,1.070612,-0.023858,0.003302,0.001527
8.560000,9.650903,0.177978,0.986408,-0.024849,0.004101,-0.001565
8.570000,9.784471,0.224011,0.942864,-0.025039,0.002752,0.001045
8.580000,9.788386,0.261853,0.970645,-0.024698,0.003015,-0.000028
8.590000,9.700961,0.185401,0.977995,-0.024257,0.004099,-0.000256
8.600000,9.698183,0.181058,0.962206,-0.024395,0.003941,-0.000030
8.610000,9.809467,0.239461,0.966378,-0.025569,0.003336,0.000001
8.620000,9.816760,0.248456,1.043910,-0.025915,0.002139,0.001103
8.630000,9.691148,0.184847,0.992921,-0.025552,0.005185,0.001270
8.640000,9.743665,0.193083,0.944997,-0.025409,0.004174,0.001417
8.650000,9.800022,0.289375,0.987323,-0.025062,0.003738,0.001557
8.660000,9.701772,0.267672,0.975531,-0.024435,0.003807,0.001160
8.670000,9.728715,0.175883,0.988910,-0.025834,0.002129,0.002122
8.680000,9.821015,0.153281,0.949615,-0.025614,0.002747,0.001899
8.690000,9.849107,0.192274,1.002976,-0.025045,0.003054,0.000993
8.700000,9.627118,0.257251,0.979450,-0.024700,0.005225,0.000112
8.710000,9.699757,0.274349,0.957361,-0.024728,0.003285,0.001687
8.720000,9.904052,0.211025,0.959605,-0.024586,0.000919,0.001679
8.730000,9.783390,0.150116,1.047646,-0.024138,0.002495,0.001120
8.740000,9.628257,0.164897,0.945602,-0.024385,0.005466,-0.000335
8.750000,9.735348,0.318774,0.941575,-0.025107,0.003967,0.000674
8.760000,9.801261,0.332217,1.002187,-0.025014,0.002861,0.001377
8.770000,9.790178,0.179587,1.050066,-0.024056,0.003684,0.000757
8.780000,9.743993,0.098343,0.996881,-0.024673,0.004600,0.000648
8.790000,9.797071,0.244509,0.970620,-0.025228,0.003252,0.001581
8.800000,9.676033,0.376313,0.959506,-0.025125,0.003912,0.002375
8.810000,9.632342,0.275590,0.964862,-0.025087,0.003721,0.002638
8.820000,9.830429,0.112334,0.952489,-0.025655,0.003130,0.002824
8.830000,9.912654,0.133158,1.045752,-0.025243,0.001944,0.002183
8.840000,9.724555,0.220885,0.980979,-0.024532,0.004738,0.000752
8.850000,9.592942,0.342588,0.964684,-0.025221,0.003816,0.000458
8.860000,9.784667,0.298110,0.875663,-0.025453,0.003000,0.001073
8.870000,9.881642,0.197932,1.033102,-0.025595,0.000742,0.001922
8.880000,9.727900,0.060401,0.972368,-0.025773,0.004152,0.002291
8.890000,9.724505,0.220946,0.968816,-0.026556,0.002833,0.001630
8.900000,9.788270,0.375691,0.930652,-0.025123,0.004534,-0.000075
8.910000,9.728006,0.288088,1.047639,-0.024681,0.003839,-0.000132
8.920000,9.741596,0.104548,1.024820,-0.024651,0.004760,0.001438
8.930000,9.848766,0.137361,1.020212,-0.025302,0.003458,0.001696
8.940000,9.784504,0.290122,0.999095,-0.025135,0.003602,0.000952
8.950000,9.603350,0.319180,0.964268,-0.024896,0.003811,0.001446
8.960000,9.652395,0.228267,0.926348,-0.024658,0.003139,0.001434
8.970000,9.921652,0.168482,1.022018,-0.023756,0.001736,0.000945
8.980000,9.820036,0.154931,1.024495,-0.024389,0.005011,0.000764
8.990000,9.683975,0.202097,1.061119,-0.025719,0.003854,0.000056
9.000000,9.655530,0.301691,0.939390,-0.025748,0.004014,0.000914
9.010000,9.814107,0.295879,1.051652,-0.025534,0.000270,0.001007
9.020000,9.765977,0.120121,0.938351,-0.024921,0.003901,0.000625
9.030000,9.705386,0.124791,0.993912,-0.024682,0.002648,0.001032
9.040000,9.836313,0.255025,0.898273,-0.026598,0.002384,0.002418
9.050000,9.823038,0.350321,0.999258,-0.024803,0.001546,0.002059
9.060000,9.671320,0.217007,0.916644,-0.023877,0.004524,-0.000540
9.070000,9.791416,0.166429,0.967926,-0.024586,0.001002,0.000043
9.080000,9.833509,0.238773,0.985238,-0.025351,0.002088,0.000358
9.090000,9.720263,0.253734,0.988871,-0.025287,0.003440,0.001210
9.100000,9.663371,0.216092,0.918746,-0.024979,0.005113,0.002125
9.110000,9.799280,0.201471,0.908996,-0.024573,0.003942,0.001610
9.120000,9.841192,0.200555,0.987911,-0.024348,0.002467,0.000482
9.130000,9.700874,0.186150,0.997579,-0.024579,0.003228,0.000549
9.140000,9.734491,0.203753,0.959135,-0.025196,0.004046,0.001334
9.150000,9.777442,0.231046,0.974700,-0.024744,0.004791,0.001224
9.160000,9.808936,0.257670,1.001323,-0.023950,0.005665,0.000827
9.170000,9.640448,0.167489,0.983392,-0.024535,0.004664,0.001191
9.180000,9.730334,0.242898,0.933485,-0.024895,0.003341,-0.000452
9.190000,9.837963,0.291289,1.042734,-0.025161,0.000575,0.000458
9.200000,9.761705,0.222697,1.031770,-0.024798,0.003490,0.000497
9.210000,9.703734,0.145158,1.006645,-0.025225,0.002371,0.000777
9.220000,9.769490,0.236561,0.985968,-0.025504,0.002835,0.000842
9.230000,9.726983,0.355270,1.029156,-0.025192,0.002810,0.000767
9.240000,9.699736,0.274207,1.012073,-0.024650,0.004454,0.001467
9.250000,9.798862,0.155172,0.974535,-0.025128,0.003521,0.001274
9.260000,9.868616,0.166544,1.006881,-0.024735,0.002859,0.000689
9.270000,9.744858,0.266200,0.982867,-0.024605,0.002505,0.001105
9.280000,9.652627,0.311063,0.965094,-0.025423,0.003245,0.000789
9.290000,9.825664,0.242266,0.925203,-0.026471,0.003300,0.001341
9.300000,9.881918,0.174876,1.073187,-0.025999,0.001818,0.002285
9.310000,9.702025,0.103568,0.967329,-0.025289,0.004885,0.002053
9.320000,9.692578,0.232606,0.959764,-0.025616,0.002012,0.002264
9.330000,9.750503,0.360245,0.859709,-0.026070,0.003059,0.001325
9.340000,9.809052,0.284158,1.035065,-0.025256,0.001234,0.001747
9.350000,9.744300,0.099205,0.959513,-0.023707,0.006113,0.000287
9.360000,9.804753,0.120975,0.974774,-0.024002,0.002799,0.000278
9.370000,9.791187,0.287663,0.953071,-0.024023,0.003689,0.000740
9.380000,9.604798,0.341690,0.977585,-0.023671,0.005709,0.000153
9.390000,9.658560,0.205798,0.941132,-0.023958,0.003664,0.000841
9.400000,9.871222,0.113996,0.984515,-0.024763,0.000808,0.001985
9.410000,9.843655,0.135223,1.030820,-0.024922,0.001898,0.001571
9.420000,9.650788,0.211816,0.997518,-0.024336,0.003655,0.000692
9.430000,9.647963,0.301869,0.919158,-0.024400,0.004475,0.000520
9.440000,9.834955,0.270927,1.005141,-0.024845,0.002043,0.000706
9.450000,9.779094,0.121744,1.017366,-0.023718,0.005837,-0.000094
9.460000,9.704862,0.080143,1.023389,-0.025522,0.004260,0.000075
9.470000,9.782749,0.281588,0.912172,-0.025830,0.003271,0.000021
9.480000,9.753829,0.392232,1.030857,-0.025514,0.003059,-0.000443
9.490000,9.703987,0.210582,0.987129,-0.024310,0.005420,0.000011
9.500000,9.798823,0.115509,1.046322,-0.025057,0.003438,0.000361
9.510000,9.884573,0.138221,0.979113,-0.025174,0.004260,0.000948
9.520000,9.765267,0.307835,1.041906,-0.024893,0.003439,0.001352
9.530000,9.576106,0.302684,0.936328,-0.024921,0.004937,0.000428
9.540000,9.783601,0.250188,0.949013,-0.024965,0.001551,0.002411
9.550000,9.907058,0.174790,1.002925,-0.024740,0.001159,0.001677
9.560000,9.782950,0.146651,1.026142,-0.025087,0.002469,-0.000268
9.570000,9.700848,0.237254,0.963504,-0.025721,0.003383,-0.000069
9.580000,9.757890,0.350062,0.972767,-0.026171,0.002664,0.001182
9.590000,9.770931,0.231949,1.002137,-0.025181,0.002910,0.001267
9.600000,9.679202,0.128067,0.993947,-0.024358,0.004698,0.001069
9.610000,9.783892,0.207349,0.947400,-0.024781,0.003569,0.000320
9.620000,9.828577,0.341496,0.998225,-0.025545,0.001772,0.001457
9.630000,9.630756,0.251095,0.898770,-0.024935,0.005854,0.001103
9.640000,9.706265,0.185424,0.980181,-0.024893,0.002741,0.000929
9.650000,9.830738,0.230154,0.933796,-0.024692,0.004505,0.001057
9.660000,9.781146,0.264324,1.040293,-0.024238,0.002361,0.001007
9.670000,9.653505,0.217263,0.939904,-0.024984,0.005925,0.001619
9.680000,9.732587,0.226355,0.969068,-0.024859,0.004344,0.001374
9.690000,9.827229,0.203357,0.976005,-0.025198,0.003564,0.001933
9.700000,9.736997,0.172197,0.999911,-0.025138,0.004017,0.002397
9.710000,9.710501,0.192983,0.958798,-0.024763,0.004121,0.001587
9.720000,9.827316,0.230256,0.997359,-0.024146,0.002910,0.001400
9.730000,9.763033,0.176157,0.986112,-0.024159,0.004008,0.000413
9.740000,9.687559,0.151378,0.990795,-0.024131,0.003319,-0.000101
9.750000,9.731167,0.274695,0.939914,-0.024750,0.003660,0.000179
9.760000,9.836903,0.286417,1.069528,-0.025164,0.002231,0.000542
9.770000,9.779646,0.124992,0.954784,-0.024687,0.004873,0.000100
9.780000,9.731914,0.111967,1.043977,-0.025010,0.001831,0.000282
9.790000,9.828601,0.270320,0.931971,-0.024900,0.003558,-0.000130
9.800000,9.738156,0.355574,1.039685,-0.025581,0.002780,0.000017
9.810000,9.637727,0.211718,0.932419,-0.024278,0.005823,0.000322
9.820000,9.839363,0.148828,1.006507,-0.024244,0.001720,0.001031
9.830000,9.834500,0.168571,1.006701,-0.024857,0.005037,0.001177
9.840000,9.694093,0.228282,0.986855,-0.025343,0.004437,0.000491
9.850000,9.663306,0.308972,0.941020,-0.025713,0.003724,0.001450
9.860000,9.817452,0.277849,0.997799,-0.025548,0.002010,0.001441
9.870000,9.835673,0.111999,0.998949,-0.024491,0.003088,-0.000004
9.880000,9.697739,0.111681,0.970389,-0.024604,0.004175,-0.000306
9.890000,9.706404,0.351170,0.904567,-0.025252,0.002355,-0.000187
9.900000,9.728169,0.416148,1.009555,-0.025305,0.002032,0.000606
9.910000,9.731093,0.144084,0.958786,-0.025469,0.004103,0.001540
9.920000,9.827465,0.042571,1.025420,-0.025748,0.001679,0.001435
9.930000,9.828795,0.251806,0.951591,-0.024843,0.002849,0.000132
9.940000,9.684506,0.431058,0.972346,-0.025016,0.003469,0.001657
9.950000,9.589393,0.319607,0.907705,-0.025317,0.004055,0.001155
9.960000,9.806463,0.174603,0.957991,-0.025402,0.001018,0.001909
9.970000,9.933829,0.096808,1.041616,-0.025558,0.000568,0.002232
9.980000,9.748488,0.116247,0.982303,-0.024923,0.004256,0.001850
9.990000,9.651127,0.327335,0.963302,-0.025313,0.003360,0.002883
10.000000,9.744084,0.371159,0.964730,-0.025764,0.002865,0.002976
10.010000,9.827682,0.184941,1.062358,-0.025128,0.001275,0.002234
10.020000,9.800671,0.031442,1.002537,-0.024633,0.005512,0.000392
10.030000,9.751265,0.229968,0.951841,-0.025402,0.004925,0.000114
10.040000,9.725806,0.391924,0.952352,-0.025236,0.003687,0.000474
10.050000,9.686370,0.275912,0.988486,-0.023730,0.003830,0.000388
10.060000,9.840559,0.054616,1.043382,-0.024386,0.002440,-0.000567
10.070000,9.880153,0.155035,1.068458,-0.024253,0.002410,-0.000245
10.080000,9.704973,0.311543,1.036247,-0.024800,0.003420,0.000384
10.090000,9.597059,0.301976,0.959182,-0.025035,0.004647,0.001877
10.100000,9.736757,0.246701,0.938258,-0.025509,0.003637,0.002743
10.110000,9.884911,0.164047,1.058860,-0.025872,0.001822,0.002380
10.120000,9.774896,0.109573,0.984867,-0.025065,0.005197,0.001635
10.130000,9.694365,0.255535,0.968964,-0.025764,0.002698,0.002004
10.140000,9.756442,0.334145,0.949636,-0.024735,0.002936,0.001088
10.150000,9.768969,0.207412,1.004175,-0.025350,0.002912,0.001220
10.160000,9.751779,0.109680,0.946293,-0.025390,0.004930,0.000912
10.170000,9.806948,0.235114,0.958035,-0.026151,0.001194,0.001663
10.180000,9.750206,0.325283,0.963578,-0.025350,0.004356,0.001073
10.190000,9.693289,0.205383,0.923670,-0.024869,0.004696,0.000520
10.200000,9.747280,0.171091,0.917479,-0.024741,0.004274,0.000254
10.210000,9.813015,0.224149,0.984767,-0.025213,0.003257,-0.000008
10.220000,9.784560,0.278150,0.987575,-0.024892,0.004059,0.000721
10.230000,9.663215,0.233857,0.978232,-0.024953,0.003354,0.000985
10.240000,9.817706,0.222246,0.896397,-0.025464,0.001658,0.001614
10.250000,9.826470,0.223797,1.037117,-0.024849,0.001527,0.001418
10.260000,9.712761,0.201734,0.949289,-0.024434,0.003875,0.001374
10.270000,9.736400,0.262067,0.992518,-0.024301,0.001645,0.000189
10.280000,9.796468,0.242391,0.971221,-0.024490,0.002954,-0.000360
10.290000,9.798361,0.138153,1.067139,-0.024538,0.001803,0.000629
10.300000,9.677074,0.164935,0.972888,-0.024070,0.005338,0.000300
10.310000,9.735525,0.310430,0.983116,-0.025141,0.002749,0.000998
10.320000,9.792071,0.327458,1.007213,-0.025359,0.003235,0.001464
10.330000,9.752760,0.161212,1.022666,-0.024040,0.004440,0.001259
10.340000,9.780632,0.099263,0.992067,-0.024480,0.004185,0.000913
10.350000,9.760685,0.261879,0.983139,-0.024640,0.003864,0.000259
10.360000,9.693926,0.354293,0.997400,-0.024374,0.003544,0.000153
10.370000,9.691614,0.236347,1.004517,-0.023819,0.003128,0.001078
10.380000,9.822230,0.110717,0.967718,-0.025209,0.002542,0.001759
10.390000,9.918265,0.140995,1.051153,-0.025640,0.000117,0.001422
10.400000,9.679564,0.235903,0.930597,-0.024321,0.004447,0.001078
10.410000,9.617779,0.328053,0.961690,-0.025029,0.001602,0.001211
10.420000,9.790936,0.286768,0.885309,-0.024635,0.003491,0.000948
10.430000,9.881731,0.163653,1.026981,-0.025026,0.002294,0.001241
10.440000,9.818197,0.051829,0.965097,-0.024905,0.004228,0.001362
10.450000,9.705137,0.226489,0.955021,-0.025419,0.003211,-0.000133
10.460000,9.720386,0.360109,0.909833,-0.025584,0.005092,0.001419
10.470000,9.745245,0.286734,0.977056,-0.024443,0.003615,0.001259
10.480000,9.753222,0.121045,1.010185,-0.024678,0.004261,0.000640
10.490000,9.825955,0.122211,0.962380,-0.024671,0.003698,0.000709
10.500000,9.786612,0.284054,0.985453,-0.024168,0.004257,0.001107
10.510000,9.639263,0.332501,0.961842,-0.023616,0.005220,0.000285
10.520000,9.677487,0.240876,1.009568,-0.024055,0.004087,0.001027
10.530000,9.803731,0.137176,0.936455,-0.025238,0.003957,0.001527
10.540000,9.879492,0.166439,1.039658,-0.025335,0.001842,0.001189
10.550000,9.648527,0.240246,0.994157,-0.023555,0.006571,0.001601
10.560000,9.657353,0.246996,1.004541,-0.025139,0.003151,0.000287
10.570000,9.749109,0.251680,0.882970,-0.023342,0.004289,-0.000645
10.580000,9.790110,0.253870,1.030612,-0.025044,0.002445,0.000915
10.590000,9.760178,0.165024,1.018628,-0.025231,0.003530,0.001169
10.600000,9.779998,0.157173,1.025396,-0.025830,0.000352,0.003074
10.610000,9.771560,0.260681,0.977516,-0.025171,0.002109,0.001646
10.620000,9.746728,0.311269,1.011682,-0.024432,0.001279,0.001257
10.630000,9.707115,0.209732,0.990040,-0.024859,0.004905,0.001790
10.640000,9.797322,0.152001,0.943709,-0.025596,0.004096,0.000175
10.650000,9.819252,0.263154,0.975159,-0.025159,0.003154,0.000737
10.660000,9.760519,0.295950,1.001502,-0.024740,0.003216,0.001378
10.670000,9.757228,0.192332,1.000005,-0.024915,0.002269,0.001396
10.680000,9.717746,0.147708,0.905151,-0.024802,0.003318,0.000461
10.690000,9.835623,0.277376,0.993106,-0.023946,0.001854,0.000702
10.700000,9.710240,0.310115,1.002313,-0.024961,0.005364,0.001048
10.710000,9.792146,0.146684,1.034444,-0.025045,0.002367,0.000920
10.720000,9.812827,0.131913,0.918208,-0.026047,0.004295,0.001203
10.730000,9.744268,0.288063,0.946637,-0.024953,0.002702,0.001527
10.740000,9.666718,0.280930,0.923063,-0.024386,0.004608,0.001514
10.750000,9.702893,0.177855,0.946141,-0.024958,0.004750,0.001443
10.760000,9.740095,0.137067,0.919248,-0.025424,0.004709,0.001339
10.770000,9.796729,0.256608,1.055638,-0.024088,0.002778,0.000681
10.780000,9.697375,0.208679,1.027629,-0.024263,0.004773,0.000499
10.790000,9.741647,0.172876,0.936033,-0.025340,0.003870,0.000979
10.800000,9.773064,0.273222,0.966870,-0.025834,0.001295,0.001019
10.810000,9.721594,0.304155,0.941713,-0.024908,0.003048,0.001434
10.820000,9.728270,0.196168,0.993911,-0.024351,0.004467,0.002039
10.830000,9.794271,0.132701,0.914172,-0.024668,0.004374,0.001824
10.840000,9.848015,0.209897,1.108860,-0.025282,-0.000078,0.000985
10.850000,9.627311,0.256210,0.934313,-0.025215,0.006559,0.001053
10.860000,9.728834,0.266738,1.055200,-0.025993,0.002830,0.001750
10.870000,9.875856,0.218454,0.897307,-0.025529,0.003330,0.001774
10.880000,9.857925,0.181829,1.061739,-0.025370,0.001531,0.001680
10.890000,9.634209,0.109734,0.845241,-0.025360,0.006568,0.001680
10.900000,9.714938,0.254386,0.852490,-0.025490,0.005702,0.000566
10.910000,9.774207,0.325191,0.923175,-0.025634,0.004338,-0.000582
10.920000,9.751439,0.166750,1.061813,-0.024961,0.001592,0.000709
10.930000,9.713427,0.052148,0.966584,-0.024108,0.004579,-0.000037
10.940000,9.767506,0.263214,0.975866,-0.024948,0.004262,0.000528
10.950000,9.645887,0.342084,0.952295,-0.025504,0.003196,0.000916
10.960000,9.638797,0.295186,0.955408,-0.025477,0.001892,0.001102
10.970000,9.840641,0.208700,0.961997,-0.025370,0.000282,0.001854
10.980000,9.851231,0.126912,0.948622,-0.025106,0.002989,0.001506
10.990000,9.691614,0.153650,0.933550,-0.025443,0.002347,0.000154
11.000000,9.601847,0.199806,0.875615,-0.025766,0.000412,0.000557
11.010000,9.825283,0.325221,0.982109,-0.025681,0.002462,0.001637
11.020000,9.740166,0.084209,1.006394,-0.025577,0.003696,0.001515
11.030000,9.792666,0.102406,1.029660,-0.025747,0.001149,0.000427
11.040000,9.726719,0.453573,0.924510,-0.025107,0.004544,0.000168
11.050000,9.631442,0.450172,0.926376,-0.024298,0.004206,0.000303
11.060000,9.655560,0.210561,0.899926,-0.023488,0.003869,0.000438
11.070000,9.929869,0.081097,0.949285,-0.025228,0.001530,-0.000296
11.080000,9.641344,0.242849,0.941213,-0.025654,0.004132,-0.000611
11.090000,9.585963,0.331061,1.007129,-0.025045,0.003200,0.000732
11.100000,9.792678,0.305056,1.045022,-0.025045,0.001447,0.002900
11.110000,9.858219,0.160983,1.072615,-0.024873,0.002815,0.003254
11.120000,9.773572,0.082591,0.968967,-0.024445,0.004423,0.002069
11.130000,9.778355,0.304503,0.948899,-0.024617,0.001994,0.001192
11.140000,9.753840,0.471735,0.897018,-0.024124,0.002487,0.001192
11.150000,9.555755,0.144071,0.967273,-0.024372,0.002638,0.002278
11.160000,9.830307,-0.128688,1.095700,-0.024151,0.000751,0.001308
11.170000,9.881052,0.145182,1.062348,-0.024719,0.002822,0.001369
11.180000,9.644947,0.400663,1.102844,-0.026536,0.003941,0.000741
11.190000,9.654736,0.290282,1.025096,-0.025844,0.003387,0.000326
11.200000,9.924662,0.193697,1.009029,-0.024925,0.001272,0.001206
11.210000,9.931555,0.214460,0.921274,-0.025192,0.004207,0.001072
11.220000,9.682790,0.214988,0.888753,-0.024089,0.004308,0.000538
11.230000,9.671122,0.224085,0.887954,-0.024397,0.000902,0.000659
11.240000,9.775879,0.252638,1.000190,-0.025059,0.000139,0.001154
11.250000,9.715037,0.143114,1.080263,-0.024743,0.002181,0.001985
11.260000,9.783354,0.077514,1.153165,-0.024587,0.000876,0.001814
11.270000,9.837943,0.265886,0.997306,-0.024202,0.002652,0.000621
11.280000,9.763124,0.366294,0.995979,-0.024737,0.002369,0.000109
11.290000,9.725660,0.205272,0.841546,-0.024377,0.004677,0.000376
11.300000,9.770898,0.183506,0.880771,-0.024257,0.002370,0.000074
11.310000,9.852716,0.302348,0.783562,-0.024145,0.002916,-0.000412
11.320000,9.719074,0.242867,1.016250,-0.024697,0.000924,-0.000174
11.330000,9.639653,0.071749,1.013380,-0.024587,0.003429,0.001665
11.340000,9.765924,0.191844,1.057710,-0.024652,0.001020,0.001196
11.350000,9.781729,0.369008,1.019220,-0.025173,0.002444,0.000891
11.360000,9.703564,0.326143,1.038104,-0.024357,0.003971,0.000789
11.370000,9.714733,0.171848,1.006228,-0.024834,0.004136,0.000987
11.380000,9.810817,0.204072,0.886441,-0.025464,0.003852,0.001092
11.390000,9.793826,0.234102,0.899044,-0.025269,0.002930,0.000869
11.400000,9.646920,0.230798,0.950074,-0.025023,0.003226,0.001151
11.410000,9.699230,0.262358,0.965179,-0.025673,0.002558,0.001311
11.420000,9.847255,0.220171,1.056709,-0.025267,0.001469,0.001180
11.430000,9.827785,0.137166,1.055399,-0.024943,0.002994,0.000409
11.440000,9.730561,0.160269,1.056404,-0.024929,0.003379,0.000269
11.450000,9.687219,0.251867,0.954175,-0.025171,0.001663,0.000250
11.460000,9.687692,0.341226,0.863447,-0.025528,-0.000121,0.000178
11.470000,9.790150,0.200936,0.978984,-0.022349,0.003921,0.000566
11.480000,9.781737,0.068430,1.035773,-0.023764,0.002276,0.001750
11.490000,9.811114,0.144903,0.927431,-0.024788,0.003357,-0.000329
11.500000,9.791033,0.342226,0.982366,-0.025409,0.001655,-0.000506
11.510000,9.618673,0.392949,0.984336,-0.026066,0.003100,0.000676
11.520000,9.668922,0.179725,1.031412,-0.025075,0.003606,0.001370
11.530000,9.838886,0.110863,1.004847,-0.024376,0.003445,0.000727
11.540000,9.866919,0.180343,1.038596,-0.024754,0.001598,0.000583
11.550000,9.654710,0.229761,1.005544,-0.025166,0.004530,0.001250
11.560000,9.633888,0.247868,0.945313,-0.024929,0.003864,0.001175
11.570000,9.813017,0.281329,0.900388,-0.023945,0.003051,0.000192
11.580000,9.842794,0.261102,1.007339,-0.024709,0.001489,-0.000603
11.590000,9.757015,0.137636,1.044748,-0.024668,0.002132,0.000033
11.600000,9.677970,0.142694,0.995075,-0.024435,0.004148,0.001036
11.610000,9.783487,0.269739,0.889552,-0.024435,0.003813,0.000453
11.620000,9.699959,0.335485,1.047134,-0.024566,0.002487,0.000305
11.630000,9.639916,0.164321,1.062004,-0.026704,0.004558,0.001515
11.640000,9.803008,0.134160,1.008466,-0.025179,0.003597,0.001614
11.650000,9.868559,0.221601,0.923002,-0.024902,0.004811,0.000601
11.660000,9.798374,0.319697,1.026692,-0.025042,0.003692,0.000462
11.670000,9.710497,0.265503,0.891821,-0.025731,0.005166,0.001691
11.680000,9.729968,0.229849,0.840988,-0.025872,0.003530,0.000531
11.690000,9.833105,0.251520,0.930209,-0.025298,0.001656,0.001308
11.700000,9.802409,0.204788,1.061098,-0.024876,0.000460,0.001748
11.710000,9.767715,0.121687,1.035861,-0.025582,0.001296,0.001909
11.720000,9.722505,0.171974,0.930056,-0.025776,0.002135,0.001731
11.730000,9.775100,0.335753,0.960648,-0.025797,0.000724,0.002406
11.740000,9.759010,0.327846,0.942887,-0.025537,0.002722,0.002052
11.750000,9.735423,0.167795,0.938719,-0.025621,0.004228,0.000740
11.760000,9.767790,0.116107,0.883459,-0.025553,0.003921,0.000586
11.770000,9.881187,0.301619,1.021456,-0.023827,0.000617,0.000751
11.780000,9.635688,0.288018,0.961634,-0.025149,0.004739,0.000468
11.790000,9.672147,0.168843,1.038167,-0.025025,0.001670,0.000923
11.800000,9.701301,0.179215,0.936411,-0.024129,0.007809,0.001225
11.810000,9.869775,0.273041,1.066255,-0.024129,0.002570,0.001353
11.820000,9.730363,0.217683,1.045941,-0.023929,0.005851,0.001134
11.830000,9.687170,0.137753,1.003868,-0.024924,0.005195,0.001374
11.840000,9.756884,0.208197,0.901431,-0.024990,0.004915,0.001430
11.850000,9.776792,0.298188,0.948009,-0.024507,0.004153,0.001206
11.860000,9.710114,0.234580,1.012712,-0.024639,0.005394,0.000837
11.870000,9.726965,0.136561,1.020019,-0.025840,0.004378,0.001405
11.880000,9.840790,0.164371,1.012657,-0.025800,0.003052,0.001739
11.890000,9.814462,0.246691,1.035973,-0.025184,0.002944,0.000934
11.900000,9.676130,0.235060,0.972549,-0.025392,0.004629,0.001188
11.910000,9.683071,0.225503,0.909685,-0.025252,0.004368,0.000871
11.920000,9.811307,0.248536,0.915822,-0.025045,0.003098,0.000058
11.930000,9.845317,0.252428,1.088064,-0.024758,0.003306,0.000845
11.940000,9.814773,0.140414,0.989862,-0.025186,0.005443,0.001958
11.950000,9.741331,0.156807,0.940053,-0.026578,0.003547,0.002567
11.960000,9.757663,0.301399,0.892115,-0.024866,0.003942,0.000460
11.970000,9.777240,0.381921,0.990253,-0.023245,0.001835,0.000618
11.980000,9.712912,0.214932,0.973667,-0.023760,0.004024,0.000985
11.990000,9.782263,0.085483,1.005347,-0.024686,0.002656,0.000202
12.000000,9.808114,0.182336,0.997365,-0.024400,0.002495,0.000354
12.010000,9.746529,0.308242,0.979870,-0.024299,0.003465,0.000844
12.020000,9.658318,0.268924,0.934957,-0.025109,0.004761,0.000613
12.030000,9.698399,0.223087,0.905154,-0.025834,0.002811,0.000718
12.040000,9.845182,0.239499,0.977624,-0.025202,0.001399,0.001444
12.050000,9.774997,0.193132,1.003263,-0.023203,0.002922,0.002132
12.060000,9.697981,0.137532,0.994558,-0.022576,0.004906,0.001161
12.070000,9.627972,0.249013,0.884944,-0.024692,0.004436,-0.000680
12.080000,9.797500,0.374578,1.008849,-0.024614,0.000324,0.000233
12.090000,9.729119,0.247507,1.007608,-0.022240,0.004695,0.001186
12.100000,9.756795,0.047902,1.075464,-0.024273,0.002181,0.001215
12.110000,9.800093,0.083182,0.921518,-0.023884,0.004028,0.000923
12.120000,9.810616,0.309574,0.976569,-0.024422,0.001297,0.000153
12.130000,9.612266,0.321891,0.919018,-0.024407,0.006146,0.000246
12.140000,9.705378,0.194371,0.935057,-0.025301,0.002026,0.000157
12.150000,9.867213,0.128113,0.970398,-0.025701,0.001870,-0.000351
12.160000,9.887798,0.138336,1.063672,-0.023928,0.001062,0.000713
12.170000,9.710333,0.168407,1.039690,-0.023804,0.003908,0.000536
12.180000,9.686233,0.257497,0.896160,-0.024522,0.004713,0.000022
12.190000,9.843173,0.314350,0.962496,-0.024631,0.001744,-0.000406
12.200000,9.785520,0.244232,0.986604,-0.024805,0.002791,-0.000019
12.210000,9.760878,0.117214,1.018555,-0.024923,0.003090,0.000305
12.220000,9.772373,0.164981,0.898811,-0.024819,0.003714,0.000418
12.230000,9.799280,0.311884,1.067333,-0.024602,-0.000275,0.000596
12.240000,9.702632,0.316267,1.002026,-0.024496,0.002710,0.000519
12.250000,9.654628,0.219532,1.028602,-0.024682,0.002810,0.000334
12.260000,9.831388,0.168638,0.906195,-0.025437,0.002570,-0.001228
12.270000,9.826878,0.220826,1.103831,-0.022490,-0.000088,0.000584
12.280000,9.614307,0.259644,0.950640,-0.024232,0.005585,0.000527
12.290000,9.702456,0.290441,0.901569,-0.024336,0.002351,0.000512
12.300000,9.823966,0.273980,0.937160,-0.024187,0.001029,-0.000267
12.310000,9.786880,0.200384,1.026777,-0.024405,0.000039,-0.000138
12.320000,9.691677,0.181591,0.991042,-0.023871,0.003923,0.000541
12.330000,9.752292,0.246528,0.927907,-0.024838,0.002261,0.000513
12.340000,9.823010,0.280463,1.031798,-0.023989,0.001539,-0.000292
12.350000,9.633332,0.229342,0.918969,-0.022999,0.005704,-0.000565
12.360000,9.741903,0.234924,0.949277,-0.023759,0.003198,-0.000292
12.370000,9.881933,0.257614,0.860002,-0.023887,0.003372,0.000211
12.380000,9.769233,0.198706,1.099266,-0.025735,0.002059,0.000715
12.390000,9.627584,0.135788,0.923470,-0.024772,0.004754,0.000764
12.400000,9.764834,0.280396,0.937483,-0.025334,0.001653,0.001639
12.410000,9.861075,0.297818,0.970697,-0.024709,0.000653,0.000139
12.420000,9.704997,0.184262,1.025255,-0.022920,0.004123,0.001398
12.430000,9.714185,0.145424,0.960059,-0.024126,0.003620,0.001426
12.440000,9.872938,0.206694,0.944798,-0.024944,0.001663,0.000815
12.450000,9.740732,0.217488,1.004813,-0.023899,0.003040,0.000009
12.460000,9.626569,0.203554,0.986063,-0.023324,0.004699,-0.000147
12.470000,9.765351,0.232409,0.975990,-0.023970,0.002012,0.000299
12.480000,9.859419,0.162455,1.005371,-0.024418,0.002999,0.000203
12.490000,9.696088,0.095888,0.986875,-0.023983,0.003924,-0.000737
12.500000,9.675176,0.265252,0.978393,-0.024107,0.003548,-0.000677
12.510000,9.825334,0.379325,0.902012,-0.024543,0.003922,-0.000023
12.520000,9.758230,0.160219,1.066685,-0.024231,0.002987,0.000390
12.530000,9.685107,-0.004182,0.988309,-0.025335,0.004720,0.000190
12.540000,9.823759,0.222925,0.968842,-0.025084,0.000143,-0.000407
12.550000,9.761302,0.418671,0.963253,-0.024782,0.000749,-0.000458
12.560000,9.615945,0.271168,0.956958,-0.025095,0.002217,-0.000222
12.570000,9.809470,0.156929,1.006859,-0.024587,0.001265,0.000458
12.580000,9.913502,0.161124,0.932750,-0.024708,0.003915,0.000307
12.590000,9.749496,0.207687,1.000860,-0.024767,0.003088,-0.000423
12.600000,9.591515,0.295922,0.920285,-0.023518,0.005054,-0.000494
12.610000,9.765322,0.351155,0.968121,-0.023685,0.000958,-0.000069
12.620000,9.835611,0.146004,1.004233,-0.023976,0.001426,-0.000097
12.630000,9.770381,0.021616,1.024182,-0.024266,0.002661,-0.000121
12.640000,9.750476,0.311519,0.933576,-0.024413,0.003338,-0.000414
12.650000,9.730649,0.510754,0.964745,-0.024380,0.002194,-0.000349
12.660000,9.710075,0.211730,0.951149,-0.023775,0.003354,-0.000458
12.670000,9.859033,0.016740,1.031225,-0.023704,0.001797,0.000659
12.680000,9.841012,0.176466,0.956223,-0.024942,0.003548,0.000480
12.690000,9.630374,0.381431,1.035413,-0.023971,0.003216,-0.000399
12.700000,9.572831,0.294472,0.909055,-0.023673,0.004861,0.000445
12.710000,9.841296,0.279838,0.985599,-0.023671,0.000515,0.001445
12.720000,9.913362,0.146020,1.036970,-0.023880,0.002436,0.002161
12.730000,9.713979,0.097369,0.986900,-0.024674,0.004700,-0.000080
12.740000,9.696017,0.309936,0.933731,-0.023518,0.003242,0.000495
12.750000,9.710769,0.406239,0.922248,-0.023427,0.003458,0.001114
12.760000,9.759887,0.137308,1.017851,-0.023316,0.002614,0.001118
12.770000,9.841743,0.002274,0.988020,-0.024142,0.003114,0.000355
12.780000,9.820175,0.243159,0.962251,-0.024257,0.002627,0.000259
12.790000,9.655454,0.368220,0.999851,-0.024375,0.003304,0.000648
12.800000,9.659868,0.201216,0.953211,-0.024814,0.003388,0.000305
12.810000,9.878029,0.131080,0.951718,-0.024377,0.001175,0.000727
12.820000,9.863241,0.207736,1.014663,-0.024506,0.001416,0.000804
12.830000,9.604963,0.179431,0.968106,-0.025341,0.003869,-0.000744
12.840000,9.691483,0.256409,0.965623,-0.023735,0.002372,-0.000525
12.850000,9.806972,0.317182,0.866730,-0.024550,0.003022,0.000131
12.860000,9.834476,0.164808,1.113254,-0.025026,0.000218,0.000310
12.870000,9.752168,0.077862,0.996940,-0.023751,0.004534,0.000604
12.880000,9.770032,0.301748,0.988454,-0.025399,0.000380,0.000175
12.890000,9.765756,0.330382,0.918757,-0.026250,0.002567,0.000335
12.900000,9.668585,0.148860,1.016066,-0.025036,0.003300,0.000351
12.910000,9.749737,0.144535,0.936460,-0.025154,0.005104,0.000175
12.920000,9.816998,0.308392,0.990838,-0.024874,0.002596,0.000665
12.930000,9.721152,0.243019,1.014425,-0.026104,0.003661,0.001048
12.940000,9.707875,0.155507,1.028047,-0.025851,0.003221,0.001791
12.950000,9.777603,0.226314,1.045450,-0.025362,0.002116,0.001854
12.960000,9.841835,0.334443,1.054810,-0.025116,0.002608,0.001363
12.970000,9.687900,0.171067,0.903645,-0.025226,0.005278,0.001312
12.980000,9.754342,0.160422,1.046646,-0.025351,0.001243,0.001261
12.990000,9.902735,0.272016,0.861091,-0.025351,0.004050,0.001890
13.000000,9.759246,0.228142,1.104677,-0.025351,0.001872,0.002272
13.010000,9.591159,0.177607,0.907493,-0.025502,0.006059,0.003046
13.020000,9.801025,0.335709,0.962841,-0.025497,0.001460,0.003008
13.030000,9.893708,0.211977,0.924770,-0.025399,0.002732,0.002324
13.040000,9.737877,0.054270,1.006234,-0.024499,0.002835,0.000641
13.050000,9.687924,0.215522,0.893249,-0.023589,0.004500,0.000338
13.060000,9.757067,0.405537,0.892065,-0.023897,0.003493,-0.000631
13.070000,9.773641,0.214075,1.011017,-0.024491,0.001455,0.000557
13.080000,9.768646,0.008366,1.022454,-0.025326,0.003141,0.000601
13.090000,9.796439,0.155618,0.936118,-0.025663,0.003017,0.001621
13.100000,9.728733,0.355937,1.024450,-0.025632,0.002224,0.001277
13.110000,9.615378,0.303135,0.982297,-0.024614,0.004493,0.000862
13.120000,9.744318,0.235133,1.122501,-0.024023,0.002051,0.000705
13.130000,9.892993,0.193708,1.091436,-0.024423,0.001901,0.000879
13.140000,9.862956,0.234741,1.203915,-0.024740,0.001907,0.001069
13.150000,9.554683,0.277944,1.015249,-0.024740,0.005590,0.001209
13.160000,9.606475,0.380223,1.034675,-0.025282,0.002298,0.001628
13.170000,9.677416,0.160221,1.096942,-0.023272,0.005766,0.000466
13.180000,9.776369,-0.091429,1.350087,-0.024615,0.005204,0.000562
13.190000,9.668857,-0.057436,1.438756,-0.026343,0.007168,0.000181
13.200000,9.665160,0.286669,1.275155,-0.027303,0.010004,0.000371
13.210000,9.787053,0.421477,1.089392,-0.027155,0.011414,0.000925
13.220000,9.952943,0.238792,0.760907,-0.026742,0.013176,0.001906
13.230000,10.106637,0.209662,0.455069,-0.026168,0.011284,0.000854
13.240000,10.125863,0.422014,0.310796,-0.026114,0.007402,0.000688
13.250000,9.887637,0.465442,0.409759,-0.025109,0.003953,0.000916
13.260000,9.747910,0.302432,0.705930,-0.023390,0.002108,0.000726
13.270000,9.730505,0.132190,0.932810,-0.022964,0.003374,0.000506
13.280000,9.783352,0.030346,1.295083,-0.024231,0.001735,0.001512
13.290000,9.575383,-0.004319,1.233302,-0.024331,0.007956,0.001193
13.300000,9.547896,0.199315,0.993481,-0.024557,0.009316,0.001620
13.310000,9.694030,0.342269,0.647169,-0.025776,0.008919,0.001812
13.320000,9.782110,0.264345,0.501625,-0.025347,0.006880,0.001639
13.330000,9.707498,0.133788,0.411132,-0.025212,0.006905,0.000181
13.340000,9.741575,0.334996,0.623642,-0.025379,0.001272,0.000614
13.350000,9.582192,0.417075,0.937112,-0.024374,0.001494,-0.000219
13.360000,9.470244,0.219708,1.274719,-0.022870,0.001298,-0.000534
13.370000,9.542584,0.096155,1.487032,-0.022620,0.001716,-0.000902
13.380000,9.624129,0.134029,1.493157,-0.024026,0.004888,-0.000802
13.390000,9.546493,0.139238,1.300953,-0.024903,0.009047,0.000132
13.400000,9.611138,0.195580,1.050594,-0.024990,0.008593,0.001541
13.410000,9.798012,0.292588,0.884460,-0.025943,0.007465,0.002257
13.420000,9.764559,0.231648,0.878228,-0.026521,0.006933,0.001533
13.430000,9.837385,0.188210,0.975586,-0.025437,0.003462,0.001449
13.440000,9.944828,0.337172,1.118688,-0.025741,0.001864,0.001991
13.450000,9.784304,0.351220,1.270178,-0.026095,0.003538,0.002404
13.460000,9.782484,0.146646,1.255966,-0.025541,0.002383,0.001009
13.470000,10.040560,0.201178,1.222481,-0.024903,0.000190,0.001517
13.480000,9.903953,0.257834,1.028053,-0.025091,0.004276,0.001320
13.490000,9.758703,0.104563,0.938926,-0.025787,0.003949,0.000524
13.500000,9.891498,0.130140,0.865769,-0.025656,0.002046,0.001018
13.510000,9.924409,0.259220,0.877309,-0.025656,0.002373,0.001562
13.520000,9.768264,0.257718,0.893894,-0.026114,0.002311,0.000611
13.530000,9.888632,0.185322,0.919910,-0.026321,0.000153,0.000858
13.540000,10.021602,0.216162,0.909270,-0.026871,0.000153,0.001519
13.550000,9.707599,0.335769,0.823843,-0.024042,0.001718,0.002231
13.560000,9.741912,0.314392,0.806456,-0.023943,-0.000565,0.001525
13.570000,9.776565,0.193630,0.821915,-0.023622,0.000422,0.000764
13.580000,9.535955,0.040701,0.885175,-0.023499,0.003053,0.000764
13.590000,9.596166,0.084046,0.972677,-0.023671,0.002113,-0.000519
13.600000,9.633144,0.264304,1.000301,-0.025106,0.002071,-0.000525
13.610000,9.544301,0.275447,0.993997,-0.024837,0.004452,0.000056
13.620000,9.625634,0.108280,0.929302,-0.024590,0.005787,0.000003
13.630000,9.814995,0.149671,0.874739,-0.025986,0.004069,0.000466
13.640000,9.651231,0.394200,0.793700,-0.026293,0.005984,0.000502
13.650000,9.527344,0.413334,0.852763,-0.025333,0.006713,-0.000142
13.660000,9.794289,0.254235,1.007941,-0.025186,0.002221,0.001093
13.670000,9.772350,0.063563,1.137123,-0.024803,0.004681,0.001230
13.680000,9.641454,0.137714,1.197842,-0.025026,0.004814,0.000312
13.690000,9.748058,0.309592,1.175445,-0.026319,0.002858,0.000945
13.700000,9.778056,0.263864,1.109873,-0.026724,0.005570,0.002440
13.710000,9.842078,0.071034,1.003027,-0.026964,0.005226,0.002968
13.720000,9.976598,0.142378,0.948362,-0.026506,0.003205,0.002902
13.730000,9.911858,0.407075,0.875815,-0.025604,0.004127,0.002290
13.740000,9.741492,0.425644,0.964385,-0.025586,0.003041,0.001750
13.750000,9.816404,0.290317,1.035147,-0.025314,0.001415,0.002160
13.760000,10.002860,0.073319,1.187407,-0.024721,-0.000062,0.002534
13.770000,9.718613,0.178739,1.176238,-0.024559,0.003402,0.000325
13.780000,9.649743,0.301607,1.079043,-0.024904,0.003043,-0.000114
13.790000,9.882970,0.314331,0.970822,-0.025330,0.002617,0.001305
13.800000,9.845472,0.165898,0.957554,-0.024841,0.002861,0.000865
13.810000,9.755429,0.067142,0.867511,-0.024505,0.001601,0.000529
13.820000,9.779906,0.258927,0.865187,-0.024712,0.001290,0.000545
13.830000,9.655526,0.409037,0.876079,-0.025482,0.001834,0.001200
13.840000,9.612516,0.258621,0.981756,-0.024758,0.000766,0.001470
13.850000,9.749461,0.092908,1.012772,-0.024282,0.001236,0.001956
13.860000,9.786087,0.175160,1.020616,-0.024601,0.001316,0.002037
13.870000,9.535131,0.274774,0.929251,-0.024716,0.003537,0.000908
13.880000,9.577435,0.237239,0.892446,-0.025208,0.002509,0.001285
13.890000,9.753973,0.181962,0.846945,-0.025274,0.003438,0.001451
13.900000,9.677256,0.153903,0.922314,-0.026244,0.005170,0.001026
13.910000,9.630579,0.122514,0.889125,-0.026440,0.004172,0.000519
13.920000,9.757077,0.284478,0.945734,-0.027500,0.002891,0.001538
13.930000,9.775683,0.354567,0.967121,-0.026129,0.003203,0.002134
13.940000,9.728635,0.214750,0.999218,-0.024704,0.005147,0.000889
13.950000,9.811792,0.141606,0.980313,-0.024360,0.004287,0.000671
13.960000,9.896874,0.207731,0.930552,-0.026097,0.003218,0.002274
13.970000,9.761551,0.280029,1.007119,-0.025245,0.005235,0.000697
13.980000,9.729008,0.159748,0.988425,-0.024942,0.004436,-0.000154
13.990000,9.893692,0.201157,1.039933,-0.025411,0.001562,0.000580
14.000000,9.860095,0.250159,1.082071,-0.025259,0.003136,0.000874
14.010000,9.818810,0.178425,1.068716,-0.025583,0.003372,0.001527
14.020000,9.830162,0.213670,1.003757,-0.024951,0.003665,0.001527
14.030000,9.850790,0.369069,0.991982,-0.024535,0.002558,0.001728
14.040000,9.749522,0.316931,0.990693,-0.023772,0.003106,0.001119
14.050000,9.776557,0.150991,1.037965,-0.022451,0.002065,0.001449
14.060000,9.897253,0.158646,1.032356,-0.024582,0.002169,-0.000245
14.070000,9.762409,0.243636,1.149161,-0.023929,0.002043,0.000010
14.080000,9.579797,0.202749,1.012747,-0.023973,0.004251,-0.000149
14.090000,9.715385,0.270128,1.022850,-0.025061,0.001363,0.001535
14.100000,9.763540,0.275519,0.947004,-0.025366,0.003746,0.001695
14.110000,9.776201,0.141929,1.012301,-0.025497,0.001780,0.001826
14.120000,9.662306,0.122230,0.876207,-0.025755,0.004822,0.001428
14.130000,9.698829,0.319916,0.879350,-0.025453,0.001670,0.001680
14.140000,9.706968,0.359014,0.943333,-0.024797,0.002664,0.001850
14.150000,9.694130,0.115609,0.994228,-0.024957,0.003619,0.001625
14.160000,9.780281,0.062918,0.973874,-0.025485,0.002071,0.001136
14.170000,9.734852,0.241631,0.963676,-0.025647,0.003327,0.000981
14.180000,9.608799,0.306269,0.902841,-0.025351,0.006145,0.000517
14.190000,9.690296,0.240813,0.893925,-0.025567,0.004104,0.000999
14.200000,9.852482,0.164717,0.863350,-0.025436,0.003671,0.001112
14.210000,9.939669,0.112899,0.988585,-0.024978,0.002976,0.001566
14.220000,9.697955,0.153750,0.893756,-0.025148,0.005297,0.001043
14.230000,9.682723,0.308402,0.924202,-0.025501,0.003479,0.000512
14.240000,9.806914,0.339369,0.935160,-0.025175,0.002861,0.001338
14.250000,9.818340,0.134472,1.081626,-0.024433,0.001555,0.000147
14.260000,9.826154,0.016732,1.018660,-0.024304,0.004429,-0.000480
14.270000,9.808335,0.247281,1.001825,-0.024496,0.004490,-0.000611
14.280000,9.736063,0.385512,0.981456,-0.024839,0.004586,-0.000389
14.290000,9.725174,0.247124,1.024115,-0.024998,0.003919,0.000663
14.300000,9.780275,0.131269,1.022725,-0.024282,0.003351,-0.000077
14.310000,9.855473,0.192894,1.069155,-0.024479,0.002532,-0.000785
14.320000,9.717336,0.307654,1.048806,-0.024665,0.004337,-0.000083
14.330000,9.655558,0.315291,1.026991,-0.025030,0.003526,0.001255
14.340000,9.765740,0.262486,0.979815,-0.025060,0.002665,0.002221
14.350000,9.856840,0.199250,1.064743,-0.024219,0.001899,0.001866
14.360000,9.758241,0.151647,1.029037,-0.024057,0.004255,0.001877
14.370000,9.651938,0.265193,1.024528,-0.025599,0.002921,0.002119
14.380000,9.692074,0.313130,0.920232,-0.025230,0.003610,0.001414
14.390000,9.762675,0.225770,1.060352,-0.024896,0.001251,0.002431
14.400000,9.673303,0.123926,0.935162,-0.024782,0.004895,0.001527
14.410000,9.776986,0.193248,0.988837,-0.025338,0.001005,0.001527
14.420000,9.807968,0.310683,0.917306,-0.025904,0.003054,0.001174
14.430000,9.746113,0.257412,0.959461,-0.025546,0.003331,0.002097
14.440000,9.690312,0.159213,0.895418,-0.024850,0.004191,0.000832
14.450000,9.751658,0.201606,0.912436,-0.024435,0.003769,0.000293
14.460000,9.785235,0.275356,0.953337,-0.024241,0.004106,0.001021
14.470000,9.701747,0.229184,0.980743,-0.024234,0.004308,0.000925
14.480000,9.756819,0.139705,0.938918,-0.025305,0.004075,0.001183
14.490000,9.855220,0.170322,0.951339,-0.024950,0.002751,0.001985
14.500000,9.771187,0.235177,0.946731,-0.023445,0.004477,0.001292
14.510000,9.713739,0.266469,0.923607,-0.024075,0.003747,0.001383
14.520000,9.771782,0.225966,0.877412,-0.024907,0.003916,0.001881
14.530000,9.877352,0.165067,1.013922,-0.024025,0.003103,0.001093
14.540000,9.756643,0.130804,0.992276,-0.024065,0.004106,0.000193
14.550000,9.653778,0.198842,1.015711,-0.023038,0.003175,0.000535
14.560000,9.758688,0.294683,0.969720,-0.025907,0.002457,-0.001139
14.570000,9.806804,0.258866,1.095656,-0.024827,0.001502,0.000087
14.580000,9.750189,0.132548,1.033601,-0.025491,0.005396,0.000856
14.590000,9.774526,0.145526,1.000006,-0.026097,0.004143,0.001680
14.600000,9.731962,0.263815,0.928782,-0.026222,0.005378,0.001630
14.610000,9.725241,0.348504,1.005069,-0.025531,0.004428,0.001458
14.620000,9.686841,0.251557,1.005990,-0.025121,0.002971,0.001528
14.630000,9.862532,0.122204,0.997448,-0.025467,0.002154,0.001680
14.640000,9.859257,0.169460,1.085219,-0.026007,0.002093,0.001680
14.650000,9.645480,0.261565,1.019801,-0.026007,0.004361,0.001464
14.660000,9.647198,0.301004,0.982234,-0.025477,0.004214,0.001051
14.670000,9.768736,0.262401,0.889825,-0.025425,0.003017,0.000511
14.680000,9.878877,0.179661,1.084181,-0.025445,0.000294,0.001316
14.690000,9.718215,0.111024,0.939458,-0.025499,0.006069,0.001083
14.700000,9.718759,0.225067,0.956676,-0.026097,0.002169,0.000624
14.710000,9.767521,0.345398,0.855243,-0.025577,0.003078,0.001014
14.720000,9.786573,0.368731,1.049580,-0.024955,0.000191,0.001755
14.730000,9.746791,0.152909,0.959925,-0.024311,0.006107,0.000531
14.740000,9.850445,0.133123,0.978369,-0.025439,0.001219,0.001004
14.750000,9.779040,0.275385,0.932317,-0.023929,0.004754,0.000461
14.760000,9.662029,0.330936,0.956106,-0.023946,0.003932,0.000741
14.770000,9.655584,0.234025,0.912106,-0.025193,0.004862,0.002091
14.780000,9.823678,0.157608,0.937566,-0.025538,0.002885,0.001833
14.790000,9.868487,0.177141,1.030749,-0.024634,0.002349,0.001210
14.800000,9.707060,0.202209,1.013752,-0.023882,0.005219,0.000428
14.810000,9.708434,0.231039,0.954826,-0.025317,0.004497,0.000766
14.820000,9.724455,0.276415,0.891973,-0.025686,0.003267,0.000946
14.830000,9.762952,0.243472,1.059467,-0.025656,0.000431,0.001313
14.840000,9.706772,0.128895,0.978472,-0.024786,0.005659,0.001084
14.850000,9.759788,0.140685,1.014948,-0.025035,0.003450,0.000922
14.860000,9.805069,0.245804,0.953495,-0.024923,0.005071,0.001283
14.870000,9.755497,0.306057,1.048161,-0.024893,0.004391,0.001005
14.880000,9.695785,0.188918,0.981593,-0.025816,0.005625,0.001437
14.890000,9.810125,0.165732,0.994176,-0.026597,0.002164,0.001680
14.900000,9.804142,0.245649,0.989833,-0.025491,0.003963,0.001819
14.910000,9.733661,0.267187,1.027848,-0.025206,0.004650,0.001656
14.920000,9.707040,0.195497,0.961356,-0.024749,0.005264,0.000850
14.930000,9.792684,0.181078,0.932354,-0.024885,0.002518,0.000997
14.940000,9.809255,0.251396,1.042180,-0.024983,0.000890,0.002318
14.950000,9.738925,0.227735,1.035117,-0.025351,0.001161,0.002353
14.960000,9.799608,0.171327,1.014450,-0.025424,0.001479,0.001686
14.970000,9.784229,0.210564,0.915232,-0.025131,0.003280,0.001434
14.980000,9.766563,0.263726,1.007116,-0.026036,0.001976,0.000855
14.990000,9.673469,0.229961,0.887020,-0.025109,0.006201,0.000212
15.000000,9.759421,0.181062,0.955060,-0.025799,0.002193,0.001512
15.010000,9.818871,0.239544,0.925330,-0.024870,0.004073,0.001060
15.020000,9.776864,0.288134,1.062247,-0.024111,0.002604,0.000692
15.030000,9.713289,0.196498,0.972236,-0.024261,0.003505,0.000409
15.040000,9.753606,0.189485,0.950780,-0.025359,0.002463,0.001599
15.050000,9.725401,0.284655,0.940654,-0.024699,0.002854,0.001523
15.060000,9.722839,0.306845,0.998420,-0.024657,0.001602,0.000189
15.070000,9.752770,0.187593,0.959480,-0.025656,0.002775,0.000085
15.080000,9.800188,0.126261,0.937273,-0.025137,0.003041,0.001588
15.090000,9.764735,0.236597,0.997316,-0.024500,0.002459,0.001524
15.100000,9.678737,0.283388,0.994630,-0.024896,0.003803,0.001715
15.110000,9.749635,0.217086,0.988398,-0.024883,0.004562,0.002243
15.120000,9.779670,0.187779,0.953682,-0.024740,0.004571,0.001110
15.130000,9.796393,0.221111,1.092336,-0.025300,0.002740,0.000314
15.140000,9.702156,0.211673,0.963865,-0.025518,0.005817,0.000889
15.150000,9.717722,0.191043,0.945740,-0.025355,0.004630,0.000916
15.160000,9.734554,0.259144,0.895878,-0.025939,0.004515,0.000777
15.170000,9.769090,0.309850,1.055469,-0.024900,0.001710,0.001431
15.180000,9.793134,0.184363,1.007258,-0.025115,0.005134,0.002492
15.190000,9.837617,0.101741,1.022717,-0.025621,0.003004,0.001537
15.200000,9.725776,0.213021,0.976801,-0.025213,0.004682,0.001028
15.210000,9.696824,0.356263,0.998471,-0.024623,0.003559,0.000916
15.220000,9.712315,0.281685,0.953659,-0.025045,0.004532,0.000967
15.230000,9.812495,0.118813,0.953056,-0.024937,0.003675,0.001015
15.240000,9.850869,0.146552,1.009501,-0.024995,0.002527,0.000492
15.250000,9.752637,0.258125,1.015267,-0.025198,0.002774,0.000526
15.260000,9.746408,0.248346,0.975771,-0.025294,0.002896,0.001340
15.270000,9.697988,0.210475,0.937172,-0.025292,0.002443,0.000852
15.280000,9.779328,0.247242,1.019695,-0.025187,0.002423,-0.000455
15.290000,9.772040,0.261293,1.010486,-0.024487,0.003093,0.000816
15.300000,9.787000,0.126470,0.970916,-0.024875,0.004518,0.000198
15.310000,9.735147,0.154354,0.915639,-0.024893,0.005853,-0.000657
15.320000,9.696851,0.338447,0.947532,-0.024741,0.002763,-0.000764
15.330000,9.705376,0.321163,0.985979,-0.025433,0.002580,0.000523
15.340000,9.796597,0.129809,0.989112,-0.026328,0.002687,0.001343
15.350000,9.773973,0.119091,0.998972,-0.026887,0.003517,0.002394
15.360000,9.770431,0.265644,1.008086,-0.025479,0.002813,0.002159
15.370000,9.695982,0.352291,0.986334,-0.025501,0.002598,0.002289
15.380000,9.688885,0.194461,0.918530,-0.025322,0.005736,0.000396
15.390000,9.762065,0.172630,0.941064,-0.025262,0.003768,0.000547
15.400000,9.814419,0.244984,1.013106,-0.024785,0.002295,0.000417
15.410000,9.808028,0.199557,1.015143,-0.024879,0.002706,0.000444
15.420000,9.746114,0.167289,0.991638,-0.024647,0.003321,0.000383
15.430000,9.721720,0.241487,0.952369,-0.024054,0.003490,0.000044
15.440000,9.747786,0.344071,1.006846,-0.024243,0.002979,0.000400
15.450000,9.740566,0.186194,0.954422,-0.023997,0.005041,0.000173
15.460000,9.818184,0.116185,0.978773,-0.024818,0.002908,0.001235
15.470000,9.759283,0.241912,0.976100,-0.025656,0.003292,0.001827
15.480000,9.753223,0.334837,1.029079,-0.025551,0.001559,0.001654
15.490000,9.742405,0.212522,0.981780,-0.024435,0.003562,0.001308
15.500000,9.761529,0.152547,0.993158,-0.024642,0.003936,0.000902
15.510000,9.783327,0.223318,0.992405,-0.025380,0.003216,0.001518
15.520000,9.765497,0.302426,1.038686,-0.025152,0.001901,0.001786
15.530000,9.721868,0.263976,0.977125,-0.024336,0.005048,0.000688
15.540000,9.734374,0.274019,0.993610,-0.024857,0.003533,0.000499
15.550000,9.746881,0.284062,1.010096,-0.025378,0.002019,0.000310
15.560000,9.755839,0.274153,1.015883,-0.025736,0.000874,0.000116
15.570000,9.756889,0.219769,0.997826,-0.025308,0.001515,-0.000098
15.580000,9.757939,0.165385,0.979768,-0.024881,0.002156,-0.000311
15.590000,9.753425,0.261459,1.030466,-0.025301,0.001985,-0.000458
15.600000,9.669042,0.278556,0.949585,-0.025380,0.003888,0.000094
15.610000,9.744766,0.172776,0.944773,-0.026084,0.002950,0.001180
15.620000,9.712748,0.191605,0.883906,-0.026114,0.005219,0.000780
15.630000,9.798999,0.279479,0.993153,-0.025089,0.001746,0.001038
15.640000,9.791491,0.238333,1.013628,-0.024279,0.003690,0.000914
15.650000,9.758433,0.119396,1.002757,-0.025228,0.003583,0.001628
15.660000,9.706918,0.157972,0.970316,-0.026069,0.002501,0.001387
15.670000,9.715654,0.340203,0.986434,-0.024799,0.002325,0.000966
15.680000,9.763424,0.290439,0.984644,-0.024220,0.003788,0.001496
15.690000,9.788895,0.116034,0.971237,-0.025176,0.003733,0.001623
15.700000,9.778334,0.143744,0.957410,-0.025136,0.003213,0.000564
15.710000,9.772818,0.307066,0.969303,-0.024960,0.001665,0.000618
15.720000,9.707845,0.277845,0.970899,-0.025402,0.003510,0.001120
15.730000,9.717821,0.180847,0.987833,-0.025853,0.003948,0.001222
15.740000,9.798026,0.212521,0.999737,-0.026000,0.002448,0.000994
15.750000,9.792816,0.289213,1.046818,-0.025148,0.002816,0.001865
15.760000,9.788738,0.180362,0.977845,-0.024755,0.004646,0.002276
15.770000,9.705425,0.154763,0.948988,-0.025080,0.004394,0.001271
15.780000,9.713770,0.308666,0.895845,-0.026344,0.002495,0.000364
15.790000,9.758536,0.333518,1.005338,-0.025045,0.001304,0.001333
15.800000,9.774286,0.159458,1.018855,-0.025045,0.004365,0.001020
15.810000,9.835853,0.043024,1.073376,-0.025045,0.002454,0.000765
15.820000,9.723516,0.231963,0.997677,-0.025336,0.003148,0.001081
15.830000,9.690674,0.367286,0.983906,-0.025325,0.002094,0.000641
15.840000,9.714012,0.262865,0.944104,-0.026201,0.003137,0.001572
15.850000,9.774737,0.133239,0.930909,-0.025964,0.002594,0.001457
15.860000,9.846436,0.192703,0.978391,-0.025549,0.001624,0.000636
15.870000,9.795489,0.250962,1.002082,-0.025351,0.002377,0.000305
15.880000,9.717311,0.213058,1.010212,-0.025630,0.003465,0.000794
15.890000,9.667960,0.194021,0.953733,-0.025225,0.004841,0.000269
15.900000,9.742333,0.285109,0.991623,-0.024257,0.003263,0.000263
15.910000,9.825964,0.276417,1.001552,-0.023437,0.002348,0.001274
15.920000,9.813669,0.149619,1.004844,-0.024314,0.003871,0.000953
15.930000,9.715045,0.140566,0.927632,-0.025464,0.004801,0.000750
15.940000,9.746884,0.340644,0.911721,-0.024468,0.002919,0.000407
15.950000,9.707624,0.328863,0.968137,-0.023694,0.003054,0.000242
15.960000,9.780798,0.117661,1.018964,-0.024703,0.003274,0.001717
15.970000,9.780810,0.095617,1.036643,-0.024807,0.003839,0.001701
15.980000,9.791668,0.276754,1.016009,-0.025466,0.003570,0.001317
15.990000,9.744223,0.306490,0.992361,-0.025589,0.004273,0.001357
16.000000,9.697666,0.162573,0.953438,-0.025724,0.003863,0.001454
16.010000,9.742000,0.172168,0.912769,-0.026042,0.002676,0.001534
16.020000,9.772622,0.283547,0.946334,-0.026494,0.001990,0.001832
16.030000,9.787924,0.243562,1.009104,-0.026498,0.001697,0.002080
16.040000,9.779304,0.123009,1.044037,-0.026041,0.002778,0.001459
16.050000,9.693940,0.192513,0.964487,-0.023927,0.004326,0.000713
16.060000,9.758955,0.340023,1.001111,-0.025173,0.001685,-0.001044
16.070000,9.717034,0.301174,0.975633,-0.024274,0.003313,0.000286
16.080000,9.784788,0.116411,0.978507,-0.025656,0.002042,0.000255
16.090000,9.782822,0.168682,0.944851,-0.025656,0.003266,-0.000838
16.100000,9.767656,0.317489,0.971554,-0.025409,0.003062,-0.000079
16.110000,9.738018,0.279885,0.990098,-0.024236,0.005860,0.000359
16.120000,9.717595,0.138159,0.998570,-0.025227,0.003930,0.000570
16.130000,9.743337,0.188616,0.973810,-0.026080,0.003102,0.000592
16.140000,9.797738,0.335986,0.996249,-0.024764,0.002851,0.001109
16.150000,9.786509,0.261002,1.009889,-0.024803,0.005391,0.001302
16.160000,9.765491,0.119805,0.977413,-0.025124,0.004781,0.000908
16.170000,9.737107,0.207519,0.907834,-0.025381,0.002661,0.001433
16.180000,9.731804,0.346699,0.948669,-0.025504,0.001775,0.001142
16.190000,9.736318,0.232644,1.012044,-0.025388,0.003188,0.001692
16.200000,9.752639,0.096404,1.030762,-0.025108,0.003422,0.000526
16.210000,9.816141,0.202113,1.003643,-0.024779,0.002827,0.001218
16.220000,9.759924,0.338076,1.000334,-0.024740,0.002606,0.000803
16.230000,9.710936,0.217604,0.969997,-0.025641,0.004722,0.000759
16.240000,9.739093,0.151094,0.913837,-0.024665,0.003871,0.000371
16.250000,9.720833,0.244330,0.904711,-0.023893,0.002575,-0.000402
16.260000,9.793579,0.309876,1.008837,-0.024386,0.001344,0.001075
16.270000,9.761612,0.172035,1.044124,-0.024562,0.004444,0.001645
16.280000,9.759079,0.090358,1.021421,-0.025254,0.002943,0.001228
16.290000,9.719790,0.231227,0.968948,-0.025041,0.003670,0.000852
16.300000,9.698824,0.343968,0.966529,-0.025435,0.003965,0.001360
16.310000,9.769234,0.233462,0.978250,-0.026079,0.003997,0.001770
16.320000,9.776459,0.106924,0.950438,-0.026435,0.003570,0.001260
16.330000,9.830704,0.182726,0.977808,-0.025267,0.002954,0.001221
16.340000,9.734514,0.305563,0.972927,-0.025145,0.004368,0.002056
16.350000,9.666939,0.226641,0.990569,-0.025596,0.004335,0.001036
16.360000,9.709514,0.149441,0.969372,-0.025525,0.003860,0.000895
16.370000,9.812369,0.240100,1.003289,-0.025504,0.001845,0.001198
16.380000,9.825776,0.259125,1.054237,-0.026402,-0.000117,0.002270
16.390000,9.773511,0.142225,0.978841,-0.025524,0.004857,0.001284
16.400000,9.695527,0.185877,0.911709,-0.025886,0.004103,0.000153
16.410000,9.738863,0.344224,0.906399,-0.026087,0.001935,0.001145
16.420000,9.733599,0.324574,0.991721,-0.024378,0.002921,0.000679
16.430000,9.783725,0.107450,1.024242,-0.024726,0.003931,0.000519
16.440000,9.810509,0.104561,1.025379,-0.026091,0.002477,0.001186
16.450000,9.754645,0.293041,1.011203,-0.025281,0.003612,0.001045
16.460000,9.708232,0.351335,0.987560,-0.024382,0.003165,0.000269
16.470000,9.701548,0.209933,0.947394,-0.025104,0.004266,0.001066
16.480000,9.797534,0.152092,0.938971,-0.024689,0.003248,0.000945
16.490000,9.830656,0.234797,1.019668,-0.024284,0.001965,0.000900
16.500000,9.705857,0.219680,0.992165,-0.025670,0.005049,0.001643
16.510000,9.713297,0.193282,1.002126,-0.026341,0.003709,0.001680
16.520000,9.691673,0.277283,0.936120,-0.025787,0.003587,0.000794
16.530000,9.753150,0.293140,1.029683,-0.024925,0.002202,0.000794
16.540000,9.763397,0.168370,0.973629,-0.024914,0.004705,0.001930
16.550000,9.770044,0.209407,0.928547,-0.025505,0.003893,0.000379
16.560000,9.773981,0.254623,0.891973,-0.026096,0.003080,-0.001173
16.570000,9.691926,0.336075,1.005252,-0.025431,0.002460,0.000102
16.580000,9.688109,0.204536,0.954554,-0.025066,0.005045,0.001093
16.590000,9.804477,0.139459,0.971082,-0.024740,0.002798,0.000912
16.600000,9.822109,0.218753,1.010884,-0.024616,0.003240,0.000158
16.610000,9.742720,0.263250,1.009720,-0.024642,0.003489,0.000749
16.620000,9.702280,0.227642,0.947536,-0.025546,0.004208,0.001325
16.630000,9.794703,0.213108,0.890311,-0.026209,0.003236,0.001302
16.640000,9.824030,0.245837,1.014526,-0.026373,0.001171,0.001387
16.650000,9.695943,0.178951,0.958669,-0.025620,0.003773,0.000956
16.660000,9.758945,0.172171,0.973002,-0.025442,0.002683,0.001036
16.670000,9.755822,0.219341,0.927610,-0.025071,0.003557,0.001114
16.680000,9.765064,0.249548,1.100300,-0.024458,0.001972,0.000924
16.690000,9.669970,0.165148,0.938617,-0.025646,0.006477,0.001225
16.700000,9.787970,0.176973,0.975062,-0.025145,0.002977,0.001334
16.710000,9.818633,0.256545,0.958908,-0.024656,0.004981,0.001030
16.720000,9.718746,0.262649,1.046394,-0.024920,0.003704,0.001580
16.730000,9.611973,0.165444,0.919539,-0.024294,0.007710,0.001079
16.740000,9.780152,0.178839,0.980357,-0.025807,0.001386,0.001219
16.750000,9.767499,0.268204,1.016581,-0.025417,0.003142,0.000633
16.760000,9.747637,0.273880,1.066836,-0.025198,0.001986,0.000314
16.770000,9.743386,0.168125,0.960315,-0.025508,0.004424,0.000923
16.780000,9.835863,0.207413,0.985822,-0.025166,0.003389,0.001650
16.790000,9.721242,0.275287,0.995200,-0.024740,0.004549,0.001421
16.800000,9.658225,0.267171,0.952876,-0.024847,0.004168,0.001115
16.810000,9.825852,0.242442,0.911444,-0.025127,0.002729,0.000835
16.820000,9.851000,0.200991,1.046048,-0.025198,0.001803,0.000379
16.830000,9.701976,0.143670,0.984501,-0.024257,0.004906,0.000305
16.840000,9.693580,0.237830,0.964643,-0.024589,0.002443,0.000457
16.850000,9.793729,0.353430,0.923775,-0.025962,0.002358,-0.000211
16.860000,9.854868,0.308295,1.093352,-0.025962,0.000982,0.001302
16.870000,9.707559,0.109751,0.963222,-0.024658,0.006603,0.001286
16.880000,9.791222,0.161347,0.950311,-0.024139,0.002941,0.001111
16.890000,9.782129,0.326123,0.934434,-0.025267,0.003149,0.001112
16.900000,9.645837,0.315030,0.980848,-0.025030,0.003940,0.000660
16.910000,9.722666,0.184799,0.971224,-0.025437,0.002893,0.001719
16.920000,9.877216,0.139599,0.998494,-0.025351,0.000753,0.001524
16.930000,9.805130,0.173805,1.017728,-0.025166,0.002023,0.001310
16.940000,9.589983,0.266777,0.968141,-0.025454,0.004268,0.000639
16.950000,9.670210,0.328385,0.915844,-0.026110,0.004152,0.000615
16.960000,9.849317,0.235949,1.003374,-0.025423,0.002288,0.001226
16.970000,9.777907,0.045487,0.988898,-0.024784,0.004166,0.001026
16.980000,9.716292,0.108115,1.022641,-0.024740,0.003260,0.000509
16.990000,9.752792,0.388132,0.889098,-0.025471,0.004217,0.000166
17.000000,9.736329,0.381902,1.039248,-0.024282,0.002838,-0.000414
17.010000,9.710278,0.109386,0.972056,-0.024282,0.005065,0.000700
17.020000,9.815196,0.053760,1.039546,-0.026388,0.001572,0.001256
17.030000,9.870621,0.189890,0.940852,-0.025176,0.002870,0.000477
17.040000,9.674030,0.345343,0.975322,-0.024978,0.004480,0.000543
17.050000,9.640857,0.257571,0.954966,-0.025962,0.004476,0.001986
17.060000,9.890806,0.156281,1.019158,-0.025242,0.002247,0.001854
17.070000,9.874075,0.106264,1.028356,-0.024212,0.003624,0.000250
17.080000,9.709173,0.188857,0.992269,-0.024208,0.003330,-0.000317
17.090000,9.674945,0.370444,0.904266,-0.025333,0.003552,0.000536
17.100000,9.774574,0.337419,0.974312,-0.025236,0.002128,0.000950
17.110000,9.801461,0.156635,0.978416,-0.024887,0.001937,0.000544
17.120000,9.773090,0.068046,1.026849,-0.025246,0.002906,0.000205
17.130000,9.807274,0.278259,0.943419,-0.025351,0.003837,0.000636
17.140000,9.730312,0.439844,1.052565,-0.025582,0.002392,0.001225
17.150000,9.610019,0.211196,0.928830,-0.025063,0.004949,-0.000407
17.160000,9.803951,0.124297,1.029506,-0.024392,0.001382,0.000064
17.170000,9.821735,0.212391,0.974657,-0.025878,0.003762,0.000542
17.180000,9.712560,0.280473,0.985347,-0.025160,0.002988,0.001042
17.190000,9.645138,0.272096,0.913239,-0.024737,0.004323,0.001219
17.200000,9.775304,0.247957,0.959583,-0.025904,0.000511,0.001844
17.210000,9.841526,0.177569,1.005544,-0.025151,0.001295,0.001269
17.220000,9.760208,0.145078,1.000820,-0.024897,0.003994,0.001743
17.230000,9.687916,0.215510,0.972047,-0.025586,0.002913,0.001985
17.240000,9.751634,0.297519,0.983273,-0.026253,0.002895,0.001921
17.250000,9.726219,0.211742,0.972981,-0.025600,0.002568,0.001791
17.260000,9.693229,0.111797,0.928595,-0.024605,0.005962,0.001974
17.270000,9.771439,0.233611,0.951508,-0.025444,0.003008,0.001407
17.280000,9.857183,0.289598,1.070815,-0.023212,0.002796,0.001576
17.290000,9.658681,0.131836,0.958402,-0.023841,0.005607,0.000865
17.300000,9.698394,0.158866,1.029349,-0.023366,0.003665,0.001678
17.310000,9.824848,0.254877,0.965653,-0.023783,0.003561,0.000426
17.320000,9.726720,0.288160,1.036741,-0.026583,0.003368,-0.001311
17.330000,9.706917,0.162940,0.988514,-0.022847,0.003488,0.000259
17.340000,9.820271,0.161313,1.039028,-0.024813,0.000677,0.000764
17.350000,9.835594,0.216044,1.038555,-0.024657,0.001978,0.000462
17.360000,9.731007,0.242005,1.027811,-0.023939,0.003054,-0.000038
17.370000,9.643626,0.267752,0.995896,-0.024694,0.002272,0.000490
17.380000,9.822171,0.236446,1.005036,-0.024587,0.002113,0.000129
17.390000,9.803586,0.146216,0.983457,-0.024347,0.002548,-0.000423
17.400000,9.708268,0.148893,0.938409,-0.024346,0.003930,-0.001548
17.410000,9.721064,0.268913,0.904576,-0.024705,0.002759,-0.002103
17.420000,9.810186,0.363142,0.984121,-0.023966,0.000990,-0.000676
17.430000,9.788472,0.150030,0.974653,-0.024517,0.002044,-0.000200
17.440000,9.762490,0.068736,1.052383,-0.024727,0.001745,0.000406
17.450000,9.758869,0.221529,0.888264,-0.024889,0.004205,-0.000879
17.460000,9.750840,0.387085,0.984531,-0.024873,0.001002,-0.000294
17.470000,9.598135,0.299009,0.878028,-0.023545,0.006234,0.000458
17.480000,9.794773,0.155717,0.948224,-0.023977,0.001758,0.000611
17.490000,9.888835,0.128530,0.934484,-0.024706,0.003980,0.000926
17.500000,9.754648,0.204659,1.015165,-0.024274,0.003698,-0.000432
17.510000,9.587335,0.282486,0.953047,-0.023621,0.005126,0.000257
17.520000,9.675519,0.300349,0.941596,-0.023315,0.002303,0.000445
17.530000,9.818983,0.194884,1.016819,-0.023252,0.001017,0.000361
17.540000,9.769088,0.091941,1.020490,-0.023845,0.002174,0.000238
17.550000,9.719137,0.140811,0.994376,-0.023963,0.004877,-0.000021
17.560000,9.742811,0.309647,0.917921,-0.025433,0.002899,-0.000309
17.570000,9.732338,0.347765,1.001374,-0.024701,0.002054,-0.000367
17.580000,9.732130,0.155329,1.004692,-0.024130,0.004003,0.000550
17.590000,9.811812,0.067036,1.053583,-0.024333,0.003158,0.000001
17.600000,9.825649,0.214795,0.992543,-0.024999,0.002874,0.000125
17.610000,9.759437,0.370496,1.031339,-0.024289,0.003406,-0.000856
17.620000,9.632051,0.278171,0.963567,-0.023568,0.004523,-0.000396
17.630000,9.814947,0.163681,0.962601,-0.024546,0.001024,0.000720
17.640000,9.902799,0.198835,0.985549,-0.023582,0.001773,0.000303
17.650000,9.788582,0.246343,1.059105,-0.024544,0.002321,-0.000452
17.660000,9.731477,0.214991,1.023563,-0.024750,0.003139,-0.000584
17.670000,9.732031,0.237680,0.946043,-0.023953,0.003665,0.000093
17.680000,9.749328,0.285133,0.958872,-0.023424,0.003172,0.000282
17.690000,9.736462,0.245740,0.983412,-0.024051,0.003737,0.000307
17.700000,9.770817,0.147191,0.981997,-0.024660,0.003682,-0.000452
17.710000,9.788191,0.190848,0.931473,-0.025954,0.002576,-0.000452
17.720000,9.725358,0.303858,0.989310,-0.026459,0.003100,0.000767
17.730000,9.714781,0.250000,0.982005,-0.024709,0.004460,0.000977
17.740000,9.731747,0.144072,1.006652,-0.025850,0.001774,0.001817
17.750000,9.707366,0.188243,0.912410,-0.025686,0.003078,0.000986
17.760000,9.764304,0.327415,0.997985,-0.025046,0.000767,0.000611
17.770000,9.729761,0.254209,0.979041,-0.025749,0.002289,0.000845
17.780000,9.781001,0.115429,0.959409,-0.025593,0.001294,0.002365
17.790000,9.699357,0.172655,0.879533,-0.024311,0.004493,0.001620
17.800000,9.714418,0.325481,0.914332,-0.025045,0.002981,0.000803
17.810000,9.762925,0.262313,1.018552,-0.024796,0.003207,0.000817
17.820000,9.812677,0.111116,1.080298,-0.024494,0.003757,0.000442
17.830000,9.753448,0.088152,1.046561,-0.025002,0.005032,-0.000015
17.840000,9.746194,0.334470,0.923914,-0.024353,0.004449,0.000316
17.850000,9.738268,0.291224,0.919188,-0.024474,0.004140,0.000936
17.860000,9.778630,0.111481,0.958354,-0.025186,0.004276,0.000980
17.870000,9.728816,0.146281,0.967047,-0.024158,0.004004,-0.000326
17.880000,9.787800,0.355992,0.936843,-0.024223,0.002221,0.000140
17.890000,9.774085,0.325379,1.033903,-0.025212,0.001573,0.000717
17.900000,9.784049,0.060576,1.083672,-0.025770,0.003485,0.000484
17.910000,9.713046,0.060239,1.049307,-0.025280,0.004989,0.000723
17.920000,9.745878,0.311862,0.898956,-0.025198,0.004182,0.000651
17.930000,9.731196,0.441697,0.928283,-0.025095,0.002576,-0.000266
17.940000,9.817692,0.155322,1.003873,-0.025708,0.002240,0.000608
17.950000,9.795949,0.060371,1.011833,-0.025198,0.001844,0.002067
17.960000,9.794512,0.246930,0.918859,-0.025442,0.001090,0.001589
17.970000,9.689682,0.394757,0.921289,-0.025603,0.001072,0.000814
17.980000,9.672916,0.208275,1.022655,-0.024394,0.002146,0.000611
17.990000,9.689634,0.085544,1.073166,-0.025233,0.001969,0.000979
18.000000,9.776198,0.218715,1.008277,-0.025880,0.002366,0.000989
18.010000,9.775482,0.331630,1.002925,-0.025790,0.001763,0.000787
18.020000,9.725729,0.153649,1.029233,-0.025911,0.002798,0.001018
18.030000,9.642332,0.089214,1.006178,-0.024540,0.003859,0.000377
18.040000,9.742413,0.268726,0.862995,-0.024923,0.003630,0.000039
18.050000,9.728911,0.445899,0.906778,-0.023590,0.002575,0.001206
18.060000,9.820902,0.266425,1.030645,-0.026241,0.001178,0.000339
18.070000,9.820999,0.014874,1.050508,-0.025299,0.003045,0.000733
18.080000,9.796355,0.137626,0.983422,-0.022902,0.002533,-0.000595
18.090000,9.763219,0.404880,0.886336,-0.024858,0.001563,0.001622
18.100000,9.587202,0.349095,0.997671,-0.024616,0.000757,0.001219
18.110000,9.716952,0.091455,1.049757,-0.024825,0.000426,0.001190
18.120000,9.779772,0.086182,1.067588,-0.025605,0.001489,0.002030
18.130000,9.910022,0.270922,1.008400,-0.024798,0.002658,0.001618
18.140000,9.802210,0.272717,1.004308,-0.025546,0.003948,0.000691
18.150000,9.688472,0.178463,0.951090,-0.026105,0.003376,0.001178
18.160000,9.759640,0.251623,0.860392,-0.025161,0.001376,0.001324
18.170000,9.784800,0.334587,0.904232,-0.024786,0.000910,0.000173
18.180000,9.768063,0.203070,1.039667,-0.025118,0.001743,0.000931
18.190000,9.780050,0.007646,1.065110,-0.026242,0.002101,0.001374
18.200000,9.687489,0.131042,1.014630,-0.026311,0.002793,0.000589
18.210000,9.871496,0.410743,0.908339,-0.024849,0.002193,0.000742
18.220000,9.692513,0.407975,0.936478,-0.024740,0.003388,0.000764
18.230000,9.782893,0.118717,0.954577,-0.026092,0.003024,0.001169
18.240000,9.779776,0.135583,0.917245,-0.025971,0.003050,0.001222
18.250000,9.877034,0.287193,0.904889,-0.024521,0.000853,0.000792
18.260000,9.646903,0.275042,0.968356,-0.024793,0.003373,0.000883
18.270000,9.564848,0.165345,1.002862,-0.024475,0.003809,0.000602
18.280000,9.729376,0.211478,1.004007,-0.024648,0.001545,0.000334
18.290000,9.856040,0.254186,1.074110,-0.024671,0.000584,0.000750
18.300000,9.738737,0.170386,1.100434,-0.024511,0.004514,0.000916
18.310000,9.721978,0.175289,0.986147,-0.024105,0.006261,0.001081
18.320000,9.758087,0.315872,0.882550,-0.024970,0.003300,0.000935
18.330000,9.759534,0.334277,0.925673,-0.024895,0.001745,0.000981
18.340000,9.608528,0.160793,0.945923,-0.023991,0.004577,0.000234
18.350000,9.780789,0.120739,1.003214,-0.023564,0.003788,-0.000519
18.360000,9.859812,0.204474,1.054783,-0.024217,0.002675,-0.000611
18.370000,9.797597,0.272300,1.096516,-0.025447,0.002888,0.001137
18.380000,9.643170,0.212198,0.970312,-0.024904,0.006467,0.001052
18.390000,9.800276,0.261315,0.929355,-0.025213,0.003731,0.000567
18.400000,9.855396,0.272618,0.917189,-0.025351,0.002835,0.000220
18.410000,9.748523,0.193021,0.952508,-0.025364,0.002548,0.000611
18.420000,9.693679,0.131986,0.905678,-0.025624,0.004337,0.000740
18.430000,9.806218,0.185729,0.909169,-0.025506,0.002324,0.001214
18.440000,9.805544,0.273722,0.957891,-0.025259,0.002106,0.000703
18.450000,9.694549,0.238559,0.978511,-0.025572,0.002468,0.000757
18.460000,9.785152,0.222468,0.943960,-0.026099,0.001736,0.001627
18.470000,9.886303,0.215402,1.002955,-0.025368,0.001492,0.001239
18.480000,9.704138,0.202490,0.892966,-0.024386,0.003451,-0.000009
18.490000,9.629184,0.244864,0.948365,-0.025123,0.001430,0.000094
18.500000,9.736571,0.324833,0.855083,-0.024766,0.001696,-0.000326
18.510000,9.835614,0.245526,1.106449,-0.024964,0.000345,0.000316
18.520000,9.588551,0.035999,0.938913,-0.023557,0.005955,-0.000083
18.530000,9.729118,0.132999,1.135806,-0.025203,-0.001640,0.001823
18.540000,9.756710,0.355186,0.978039,-0.025607,0.003773,0.000597
18.550000,9.602311,0.349390,1.078259,-0.023597,0.004949,0.000474
18.560000,9.633927,0.164556,0.971298,-0.024261,0.005481,0.000607
