time_s,accel_x,accel_y,accel_z,gyro_x,gyro_y,gyro_z
0.000000,9.642948,0.258662,0.798140,-0.024740,0.006567,-0.000764
0.010000,9.642948,0.258662,0.798140,-0.024740,0.006567,-0.000764
0.020000,9.642948,0.258662,0.798140,-0.024740,0.006567,-0.000764
0.030000,9.642948,0.258662,0.798140,-0.024740,0.006567,-0.000764
0.040000,9.642948,0.258662,0.798140,-0.024740,0.006567,-0.000764
0.050000,9.642948,0.258662,0.798140,-0.024740,0.006567,-0.000764
0.060000,9.642948,0.258662,0.798140,-0.024740,0.006567,-0.000764
0.070000,9.642948,0.258662,0.798140,-0.024740,0.006567,-0.000764
0.080000,9.642948,0.258662,0.798140,-0.024740,0.006567,-0.000764
0.090000,9.642948,0.258662,0.798140,-0.024740,0.006567,-0.000764
0.100000,9.642948,0.258662,0.798140,-0.024740,0.006567,-0.000764
0.110000,9.642948,0.258662,0.798140,-0.024740,0.006567,-0.000764
0.120000,9.642948,0.258662,0.798140,-0.024740,0.006567,-0.000764
0.130000,9.642948,0.258662,0.798140,-0.024740,0.006567,-0.000764
0.140000,9.642948,0.258662,0.798140,-0.024740,0.006567,-0.000764
0.150000,9.642948,0.258662,0.798140,-0.024740,0.006567,-0.000764
0.160000,9.642948,0.258662,0.798140,-0.024740,0.006567,-0.000764
0.170000,9.642948,0.258662,0.798140,-0.024740,0.006567,-0.000764
0.180000,9.642948,0.258662,0.798140,-0.024740,0.006567,-0.000764
0.190000,9.642948,0.258662,0.798140,-0.024740,0.006567,-0.000764
0.200000,9.642948,0.258662,0.798140,-0.024740,0.006567,-0.000764
0.210000,9.642948,0.258662,0.798140,-0.024740,0.006567,-0.000764
0.220000,9.642948,0.258662,0.798140,-0.024740,0.006567,-0.000764
0.230000,9.642948,0.258662,0.798140,-0.024740,0.006567,-0.000764
0.240000,9.642948,0.258662,0.798140,-0.024740,0.006567,-0.000764
0.250000,9.642948,0.258662,0.798140,-0.024740,0.006567,-0.000764
0.260000,9.642948,0.258662,0.798140,-0.024740,0.006567,-0.000764
0.270000,9.642948,0.258662,0.798140,-0.024740,0.006567,-0.000764
0.280000,9.642948,0.258662,0.798140,-0.024740,0.006567,-0.000764
0.290000,9.642948,0.258662,0.798140,-0.024740,0.006567,-0.000764
0.300000,9.642948,0.258662,0.798140,-0.024740,0.006567,-0.000764
0.310000,9.642948,0.258662,0.798140,-0.024740,0.006567,-0.000764
0.320000,9.642948,0.258662,0.798140,-0.024740,0.006567,-0.000764
0.330000,9.642948,0.258662,0.798140,-0.024740,0.006567,-0.000764
0.340000,9.642948,0.258662,0.798140,-0.024740,0.006567,-0.000764
0.350000,9.642948,0.258662,0.798140,-0.024740,0.006567,-0.000764
0.360000,9.642948,0.258662,0.798140,-0.024740,0.006567,-0.000764
0.370000,9.642948,0.258662,0.798140,-0.024740,0.006567,-0.000764
0.380000,9.642948,0.258662,0.798140,-0.024740,0.006567,-0.000764
0.390000,9.642948,0.258662,0.798140,-0.024740,0.006567,-0.000764
0.400000,9.642948,0.258662,0.798140,-0.024740,0.006567,-0.000764
0.410000,9.642948,0.258662,0.798140,-0.024740,0.006567,-0.000764
0.420000,9.642948,0.258662,0.798140,-0.024740,0.006567,-0.000764
0.430000,9.642948,0.258662,0.798140,-0.024740,0.006567,-0.000764
0.440000,9.642948,0.258662,0.798140,-0.024740,0.006567,-0.000764
0.450000,9.642948,0.258662,0.798140,-0.024740,0.006567,-0.000764
0.460000,9.642948,0.258662,0.798140,-0.024740,0.006567,-0.000764
0.470000,9.642948,0.258662,0.798140,-0.024740,0.006567,-0.000764
0.480000,9.652334,0.231501,0.815489,-0.024740,0.006567,-0.000764
0.490000,9.785974,0.129248,0.889400,-0.025159,0.002600,-0.000387
0.500000,9.933420,0.128152,0.887698,-0.025410,0.003457,0.000389
0.510000,9.688884,0.212322,0.812459,-0.025485,0.006795,-0.000516
0.520000,9.716566,0.262697,0.845263,-0.025558,0.003764,-0.000072
0.530000,9.866140,0.236723,0.868824,-0.024957,0.002742,0.000876
0.540000,9.830763,0.158072,0.841944,-0.024768,0.005670,0.001442
0.550000,9.672694,0.049540,0.810420,-0.024819,0.003200,0.000033
0.560000,9.734533,0.262992,0.794466,-0.024692,0.002796,-0.001040
0.570000,9.606521,0.242872,0.770300,-0.023959,0.006873,-0.000611
0.580000,9.883021,0.102621,0.814748,-0.023824,0.002490,-0.000484
0.590000,9.921753,0.082052,0.836699,-0.024870,0.003852,-0.000109
0.600000,9.523123,0.294182,0.740640,-0.024471,0.008508,0.000582
0.610000,9.679646,0.334905,0.748799,-0.024437,0.003516,0.000147
0.620000,9.971124,0.181615,0.822129,-0.024541,0.003673,-0.000114
0.630000,9.814267,0.143567,0.810592,-0.024646,0.003829,-0.000375
0.640000,9.657410,0.105518,0.799055,-0.024724,0.004106,-0.000573
0.650000,9.739302,0.236803,0.788261,-0.024558,0.005485,-0.000187
0.660000,9.855731,0.294102,0.797923,-0.024393,0.006865,0.000200
0.670000,9.899366,0.183223,0.831439,-0.024225,0.007846,0.000344
0.680000,9.943001,0.072344,0.864956,-0.024052,0.008018,-0.000002
0.690000,9.939499,0.064854,0.866611,-0.023879,0.008191,-0.000347
0.700000,9.906805,0.121395,0.848533,-0.024193,0.007213,-0.000347
0.710000,9.874112,0.177936,0.830455,-0.024737,0.005689,-0.000184
0.720000,9.864912,0.223828,0.825231,-0.025282,0.004165,-0.000021
0.730000,9.878820,0.259247,0.832649,-0.025314,0.004816,-0.000074
0.740000,9.892728,0.294666,0.840066,-0.025272,0.005785,-0.000158
0.750000,9.868503,0.266697,0.848743,-0.025230,0.006753,-0.000242
0.760000,9.743895,0.071862,0.860732,-0.025128,0.007231,-0.000319
0.770000,9.736377,0.074992,0.861504,-0.024844,0.006209,-0.000376
0.780000,9.745279,0.105882,0.860703,-0.024561,0.005188,-0.000433
0.790000,9.754182,0.136773,0.859902,-0.024277,0.004166,-0.000490
0.800000,9.763084,0.167663,0.859101,-0.023993,0.003144,-0.000546
0.810000,9.771986,0.198554,0.858300,-0.023709,0.002122,-0.000603
0.820000,9.780888,0.229444,0.857498,-0.024098,0.003423,-0.000300
0.830000,9.788313,0.249825,0.855689,-0.024592,0.005083,0.000059
0.840000,9.787433,0.211143,0.848217,-0.025086,0.006744,0.000418
0.850000,9.786554,0.172461,0.840744,-0.025122,0.006339,0.000382
0.860000,9.831264,0.169337,0.842428,-0.024628,0.003538,-0.000112
0.870000,9.775077,0.235439,0.810420,-0.024511,0.005350,-0.000152
0.880000,9.662371,0.223530,0.773024,-0.024192,0.006554,-0.000395
0.890000,9.844773,0.174533,0.833313,-0.023745,0.002941,-0.001024
0.900000,9.889789,0.158531,0.829858,-0.024617,0.002763,-0.000950
0.910000,9.555513,0.180440,0.760538,-0.025369,0.007303,-0.001321
0.920000,9.736025,0.246944,0.797444,-0.024665,0.003468,-0.001152
0.930000,9.840812,0.247334,0.799285,-0.024779,0.006517,0.000162
0.940000,9.847673,0.196823,0.813087,-0.024979,0.003916,-0.000571
0.950000,9.859188,0.155112,0.836886,-0.025179,0.001315,-0.001305
0.960000,9.847068,0.144103,0.843554,-0.024970,0.004941,-0.001147
0.970000,9.814800,0.159267,0.835619,-0.024893,0.006809,-0.000829
0.980000,9.782533,0.174431,0.827684,-0.024893,0.007602,-0.000483
0.990000,9.749587,0.181212,0.813825,-0.024893,0.008394,-0.000136
1.000000,9.659070,0.223098,0.781974,-0.024165,0.006612,-0.000455
1.010000,9.756042,0.290789,0.815304,-0.023913,0.003821,0.000043
1.020000,9.860639,0.208058,0.810160,-0.024913,0.005340,0.001352
1.030000,9.739019,0.082609,0.798320,-0.024952,0.006473,0.000482
1.040000,9.854107,0.140877,0.869056,-0.023640,0.002950,-0.001348
1.050000,9.764558,0.324552,0.791290,-0.024034,0.007003,-0.002364
1.060000,9.614256,0.233131,0.816870,-0.025323,0.006293,0.000093
1.070000,9.978315,0.082989,0.862264,-0.024757,0.001889,0.000296
1.080000,9.860015,0.097291,0.875929,-0.025760,0.005589,-0.000391
1.090000,9.572927,0.275123,0.786220,-0.025173,0.007597,-0.001124
1.100000,9.763709,0.290601,0.821599,-0.025010,0.003371,0.000436
1.110000,9.921114,0.139589,0.856638,-0.024939,0.004555,0.001007
1.120000,9.759984,0.064653,0.837721,-0.025045,0.006971,-0.000143
1.130000,9.769481,0.193657,0.847237,-0.024629,0.003502,-0.000816
1.140000,9.813306,0.324056,0.832226,-0.024477,0.004175,-0.000535
1.150000,9.693171,0.225919,0.802901,-0.025572,0.006898,0.000068
1.160000,9.860406,0.019975,0.865435,-0.025159,0.002731,0.000327
1.170000,9.855665,0.177097,0.816238,-0.024939,0.005354,0.000079
1.180000,9.554194,0.314315,0.786487,-0.025243,0.007366,-0.000620
1.190000,9.791798,0.242230,0.811821,-0.024726,0.002709,-0.000764
1.200000,9.927633,0.090350,0.898130,-0.024991,0.003293,-0.000898
1.210000,9.672345,0.089158,0.762756,-0.025921,0.008326,-0.000479
1.220000,9.693274,0.285235,0.806576,-0.024459,0.002908,-0.000296
1.230000,9.862581,0.338732,0.785244,-0.025543,0.003514,0.000164
1.240000,9.715649,0.199041,0.777032,-0.024039,0.006970,0.000012
1.250000,9.754061,0.073593,0.832929,-0.023702,0.004182,-0.001404
1.260000,9.888499,0.198530,0.829571,-0.024350,0.003416,-0.000135
1.270000,9.646762,0.305438,0.752119,-0.024282,0.008041,-0.000001
1.280000,9.724201,0.219128,0.797737,-0.024400,0.004475,-0.000361
1.290000,9.919951,0.156442,0.826481,-0.024839,0.003493,-0.000071
1.300000,9.723539,0.161532,0.791349,-0.025737,0.006753,-0.000475
1.310000,9.715386,0.232215,0.804245,-0.024874,0.004620,-0.000483
1.320000,9.833286,0.262162,0.832449,-0.024750,0.003915,0.000162
1.330000,9.746982,0.214450,0.778475,-0.024548,0.007394,0.000889
1.340000,9.768106,0.138594,0.837890,-0.024366,0.003570,0.000714
1.350000,9.931748,0.157384,0.893601,-0.025094,0.002909,0.001139
1.360000,9.738242,0.242874,0.823789,-0.025285,0.006627,0.001396
1.370000,9.651310,0.259943,0.803414,-0.025279,0.007343,0.001097
1.380000,9.630137,0.236693,0.808759,-0.025068,0.001543,-0.000169
1.390000,9.613400,0.198254,0.805449,-0.025045,0.002092,-0.000460
1.400000,9.596663,0.159815,0.802138,-0.025045,0.003411,-0.000634
1.410000,9.579927,0.121376,0.798827,-0.025045,0.004730,-0.000807
1.420000,9.616724,0.105382,0.815099,-0.025045,0.006048,-0.000981
1.430000,9.736060,0.086173,0.848400,-0.025152,0.007321,0.000366
1.440000,9.891346,0.143968,0.875867,-0.024944,0.002431,-0.000050
1.450000,9.767241,0.243537,0.831529,-0.023930,0.006317,-0.000738
1.460000,9.591544,0.286586,0.777703,-0.023895,0.007085,-0.001395
1.470000,9.808706,0.173310,0.830369,-0.024809,0.001464,-0.001471
1.480000,9.860451,0.089686,0.793749,-0.024689,0.005543,-0.000051
1.490000,9.680513,0.146923,0.781753,-0.024843,0.005959,-0.000148
1.500000,9.630581,0.238638,0.813004,-0.024775,0.003447,-0.000352
1.510000,9.821969,0.291567,0.821875,-0.024877,0.004056,-0.000047
1.520000,9.662741,0.015709,0.826957,-0.024904,0.006981,-0.000676
1.530000,9.824632,0.060659,0.849614,-0.024623,0.004143,-0.000764
1.540000,9.851667,0.243430,0.800938,-0.024913,0.004291,-0.000843
1.550000,9.553338,0.352546,0.763361,-0.025636,0.008018,0.000135
1.560000,9.559633,0.354691,0.768512,-0.025338,0.006899,-0.000126
1.570000,9.565928,0.356837,0.773662,-0.025040,0.005781,-0.000387
1.580000,9.572222,0.358983,0.778812,-0.024741,0.004663,-0.000648
1.590000,9.592840,0.358484,0.785525,-0.024443,0.003544,-0.000909
1.600000,9.962768,0.286741,0.830427,-0.024886,0.002611,-0.000165
1.610000,9.898752,0.153590,0.829402,-0.025277,0.006315,-0.000281
1.620000,9.795172,0.194622,0.832273,-0.024114,0.002108,-0.000647
1.630000,9.816829,0.306153,0.813996,-0.023824,0.002014,-0.001179
1.640000,9.765295,0.359126,0.773402,-0.023824,0.004722,-0.001838
1.650000,9.582534,0.195196,0.781430,-0.023842,0.005150,-0.002063
1.660000,9.605325,0.249533,0.654796,-0.023877,0.003670,-0.001925
1.670000,9.628117,0.303869,0.528161,-0.023911,0.002189,-0.001788
1.680000,9.650908,0.358206,0.401527,-0.023946,0.000709,-0.001650
1.690000,10.127121,0.263514,0.295222,-0.023889,0.000231,-0.001455
1.700000,9.747292,0.118687,-0.086450,-0.023086,0.007998,-0.000785
1.710000,9.674892,0.084211,0.080759,-0.022777,-0.001663,-0.000339
1.720000,9.909739,0.246204,-0.055388,-0.022557,-0.000821,-0.000741
1.730000,9.730198,0.234903,-0.055213,-0.022476,0.000232,-0.000571
1.740000,9.713147,0.126557,-0.008677,-0.023356,-0.001627,-0.000375
1.750000,10.019929,0.087277,-0.069923,-0.023931,-0.001927,-0.000565
1.760000,9.757939,0.165146,-0.188546,-0.024336,-0.001360,-0.000970
1.770000,9.614432,0.208396,-0.275928,-0.025045,-0.001491,-0.000893
1.780000,9.649523,0.199460,-0.316219,-0.025045,-0.003963,-0.000399
1.790000,9.684615,0.190525,-0.356510,-0.025045,-0.006436,0.000096
1.800000,9.719707,0.181589,-0.396800,-0.025045,-0.008909,0.000591
1.810000,9.886105,0.216091,-0.252184,-0.024398,-0.007832,0.001540
1.820000,9.727779,0.268708,-0.315945,-0.024569,-0.003030,0.002398
1.830000,9.719715,0.083826,-0.207454,-0.024438,-0.004733,0.001832
1.840000,9.938725,0.106426,-0.247110,-0.024985,-0.004514,0.001723
1.850000,9.764552,0.235844,-0.329102,-0.025344,0.001713,0.001805
1.860000,9.682851,0.194681,-0.317834,-0.024342,-0.000112,0.000883
1.870000,9.943482,0.197091,-0.306837,-0.024695,-0.002800,0.001697
1.880000,9.903786,0.174824,-0.362396,-0.024887,0.001581,0.000778
1.890000,9.852874,0.141413,-0.305802,-0.024045,-0.000561,0.000855
1.900000,9.801961,0.108001,-0.249208,-0.023477,-0.001287,0.000600
1.910000,9.736794,0.138680,-0.230804,-0.024057,0.003931,-0.001042
1.920000,9.662775,0.209158,-0.236117,-0.024212,0.003939,-0.001402
1.930000,9.870900,0.067754,-0.118955,-0.024475,0.002563,-0.001484
1.940000,9.714999,0.263410,-0.223725,-0.024813,0.007095,-0.001506
1.950000,9.604968,0.262100,-0.206576,-0.024169,0.008580,-0.001497
1.960000,9.890497,0.118575,-0.136043,-0.023518,0.005655,-0.001653
1.970000,9.853936,0.128462,-0.149498,-0.023658,0.010653,-0.001107
1.980000,9.593312,0.138790,-0.116605,-0.023371,0.011148,-0.004070
1.990000,9.829366,0.293685,-0.038078,-0.022334,0.006287,-0.002061
2.000000,9.790708,0.259240,-0.053412,-0.022157,0.010946,-0.001849
2.010000,9.689637,0.063636,0.035527,-0.023518,0.009788,-0.002089
2.020000,9.851931,0.070034,0.085212,-0.023370,0.006927,-0.002336
2.030000,9.738847,0.312486,0.027862,-0.023047,0.010308,-0.001434
2.040000,9.652742,0.324664,0.016557,-0.023144,0.011073,-0.000963
2.050000,9.803244,0.166434,0.103197,-0.022521,0.007855,-0.000237
2.060000,9.880312,0.111927,0.114520,-0.022503,0.009068,-0.001052
2.070000,9.744711,0.159473,0.077127,-0.022313,0.011051,-0.001849
2.080000,9.721855,0.118152,0.106698,-0.022649,0.009647,-0.002185
2.090000,9.698999,0.076831,0.136268,-0.022985,0.008243,-0.002521
2.100000,9.676143,0.035510,0.165838,-0.023320,0.006840,-0.002856
2.110000,9.653288,-0.005812,0.195409,-0.023656,0.005436,-0.003192
2.120000,9.838848,0.194879,0.294178,-0.023400,0.011090,-0.002936
2.130000,9.673006,0.290929,0.186365,-0.023082,0.009624,-0.002760
2.140000,9.713514,0.158133,0.236588,-0.022787,0.007557,-0.002612
2.150000,9.840416,0.165402,0.258583,-0.023522,0.008454,-0.001975
2.160000,9.604861,0.327186,0.171989,-0.023845,0.013103,-0.001026
2.170000,9.660875,0.295757,0.200661,-0.023990,0.010869,-0.000737
2.180000,9.644669,0.253963,0.207484,-0.024120,0.008684,-0.000441
2.190000,9.628463,0.212169,0.214308,-0.023813,0.008009,0.000111
2.200000,9.612258,0.170375,0.221131,-0.023506,0.007334,0.000664
2.210000,9.834236,0.313501,0.240562,-0.023442,0.010301,0.001069
2.220000,9.693159,0.243026,0.197961,-0.023911,0.013278,0.000986
2.230000,9.827893,0.150544,0.275287,-0.024373,0.009613,0.001219
2.240000,9.906820,0.225079,0.228931,-0.023648,0.010181,0.000937
2.250000,9.727028,0.289715,0.156090,-0.023794,0.012824,0.000320
2.260000,9.713335,0.183290,0.202329,-0.023651,0.010809,0.000750
2.270000,9.936186,0.190122,0.236355,-0.022451,0.013015,0.000516
2.280000,9.760612,0.263343,0.169040,-0.021582,0.016442,-0.000686
2.290000,9.828780,0.210154,0.228342,-0.021939,0.013196,-0.000831
2.300000,9.886109,0.169664,0.280294,-0.022371,0.009526,-0.000903
2.310000,9.751421,0.327401,0.207471,-0.021392,0.013086,-0.000765
2.320000,9.603754,0.119505,0.194596,-0.021950,0.010768,-0.001958
2.330000,9.847659,0.087156,0.230275,-0.021188,0.007694,-0.001677
2.340000,9.707168,0.149867,0.143217,-0.021384,0.012634,-0.003042
2.350000,9.640147,0.206830,0.166252,-0.020596,0.010236,-0.003731
2.360000,9.774706,0.204916,0.200856,-0.019286,0.008344,-0.003076
2.370000,9.760527,0.155794,0.190881,-0.019201,0.011034,-0.002749
2.380000,9.666420,0.057848,0.197738,-0.019153,0.011034,-0.002658
2.390000,9.739361,0.092829,0.245962,-0.018196,0.009162,-0.002890
2.400000,9.848590,0.216328,0.280734,-0.017265,0.008012,-0.003346
2.410000,9.665227,0.113749,0.277186,-0.018532,0.011104,-0.002481
2.420000,9.926864,-0.083768,0.396672,-0.018722,0.008160,-0.002058
2.430000,9.838695,0.082386,0.347553,-0.017525,0.011216,-0.003630
2.440000,9.620608,0.190724,0.290567,-0.019042,0.012182,-0.006410
2.450000,9.804174,0.147212,0.404528,-0.020009,0.006184,-0.006564
2.460000,9.919574,0.058410,0.443996,-0.020108,0.008668,-0.006464
2.470000,9.801417,0.063905,0.472799,-0.022965,0.012578,-0.006487
2.480000,9.785870,0.058334,0.476815,-0.023291,0.012024,-0.006030
2.490000,9.770323,0.052763,0.480831,-0.023617,0.011470,-0.005574
2.500000,9.754776,0.047192,0.484848,-0.023942,0.010916,-0.005118
2.510000,9.739229,0.041621,0.488864,-0.024268,0.010362,-0.004662
2.520000,9.957002,0.188401,0.581495,-0.024277,0.014579,-0.004902
2.530000,9.744384,0.377888,0.571189,-0.024299,0.018189,-0.005005
2.540000,9.866300,0.280296,0.664673,-0.025099,0.015628,-0.004639
2.550000,9.992933,0.124976,0.747644,-0.025289,0.016072,-0.005333
2.560000,9.799079,0.250774,0.768552,-0.025906,0.019276,-0.005533
2.570000,9.716309,0.327858,0.795203,-0.025815,0.018686,-0.004778
2.580000,9.695086,0.388457,0.831545,-0.025433,0.017009,-0.003863
2.590000,9.866812,0.351274,0.830563,-0.025632,0.021419,-0.003104
2.600000,9.691141,0.156586,0.908627,-0.025036,0.020591,-0.002270
2.610000,9.848078,0.315453,0.955053,-0.024540,0.019223,-0.000961
2.620000,9.731269,0.455885,0.893693,-0.025440,0.021787,-0.001406
2.630000,9.786803,0.356749,0.944020,-0.025012,0.021445,-0.001620
2.640000,9.842336,0.257614,0.994348,-0.024585,0.021103,-0.001834
2.650000,9.745515,0.308514,1.002933,-0.024157,0.020761,-0.002048
2.660000,9.584382,0.382396,1.005708,-0.022031,0.022305,-0.001246
2.670000,9.725119,0.321304,1.049322,-0.021628,0.019709,-0.000698
2.680000,9.795840,0.310245,1.038136,-0.020260,0.021383,0.000191
2.690000,9.665580,0.243214,1.013475,-0.019700,0.022503,0.000982
2.700000,9.769126,0.253966,1.089688,-0.018879,0.019231,0.000774
2.710000,9.835366,0.320499,1.095600,-0.018416,0.018116,0.000701
2.720000,9.722401,0.324322,1.054132,-0.018935,0.021398,0.001790
2.730000,9.630366,0.258939,1.108145,-0.018104,0.019209,0.002409
2.740000,9.624912,0.235225,1.107383,-0.017854,0.017991,0.002284
2.750000,9.637074,0.219991,1.095477,-0.017604,0.016773,0.002159
2.760000,9.649237,0.204756,1.083571,-0.017354,0.015555,0.002034
2.770000,9.661399,0.189521,1.071665,-0.017104,0.014337,0.001909
2.780000,9.665542,0.166820,1.064666,-0.017113,0.014564,0.001833
2.790000,9.625635,0.103110,1.084619,-0.018113,0.011792,-0.000446
2.800000,9.735953,0.123488,1.131249,-0.017521,0.010607,-0.000328
2.810000,9.785365,0.240797,1.044231,-0.017965,0.016328,-0.001076
2.820000,9.730654,0.230821,0.967186,-0.018773,0.011982,-0.000089
2.830000,9.783526,0.131848,1.021992,-0.020125,0.010900,0.000902
2.840000,9.689604,0.138380,1.010545,-0.020600,0.010781,0.001771
2.850000,9.578004,0.206590,0.982856,-0.020195,0.010756,0.002356
2.860000,9.758744,0.273548,1.050365,-0.020305,0.009199,0.003060
2.870000,9.719715,0.156696,0.992930,-0.021655,0.012638,0.004815
2.880000,9.685342,0.011426,0.980604,-0.020799,0.010147,0.005305
2.890000,9.699654,0.029099,1.002624,-0.021355,0.010048,0.004763
2.900000,9.714770,0.056900,1.025907,-0.022196,0.010536,0.004098
2.910000,9.729887,0.084701,1.049190,-0.023038,0.011023,0.003434
2.920000,10.057576,-0.049611,1.131291,-0.022797,0.009961,0.002229
2.930000,9.857548,0.094649,1.030546,-0.021919,0.016342,0.000374
2.940000,9.623255,0.275530,1.102579,-0.023659,0.017130,-0.000827
2.950000,9.890282,0.281381,1.217549,-0.022203,0.016717,-0.002042
2.960000,9.975189,0.205535,1.240034,-0.021274,0.019289,-0.002256
2.970000,9.784319,0.106316,1.116323,-0.020432,0.021436,-0.002347
2.980000,9.822144,0.331206,1.126643,-0.020180,0.020681,-0.001592
2.990000,9.808146,0.429193,1.139828,-0.020074,0.020396,-0.001205
3.000000,9.724580,0.377115,1.149517,-0.020295,0.021169,-0.001646
3.010000,9.920942,0.135308,1.172381,-0.018060,0.018750,-0.002360
3.020000,9.934055,0.288720,0.947293,-0.016354,0.022968,-0.002285
3.030000,9.681227,0.312026,0.931721,-0.016493,0.023080,-0.003054
3.040000,9.834488,0.209372,1.003992,-0.015401,0.020593,-0.003054
3.050000,9.924733,0.083004,1.002328,-0.014189,0.023841,-0.004169
3.060000,9.616062,0.137558,0.934436,-0.014781,0.023941,-0.006414
3.070000,9.824723,0.260857,0.950086,-0.013913,0.018953,-0.006414
3.080000,9.782363,0.215525,0.904603,-0.013204,0.021239,-0.007060
3.090000,9.657349,0.114383,0.886078,-0.013554,0.021991,-0.007809
3.100000,9.723906,0.060711,0.859288,-0.014387,0.019099,-0.008255
3.110000,9.642929,0.218054,0.696182,-0.015228,0.016205,-0.008268
3.120000,9.583564,0.351291,0.545009,-0.015798,0.015578,-0.007983
3.130000,9.787102,0.191293,0.538991,-0.016369,0.014951,-0.007698
3.140000,9.838951,0.125205,0.443337,-0.015687,0.010565,-0.005963
3.150000,9.636507,0.156355,0.358555,-0.018024,0.011370,-0.006874
3.160000,9.671545,0.153487,0.334640,-0.018868,0.007936,-0.007261
3.170000,9.756876,0.164070,0.274718,-0.019823,0.008962,-0.006444
3.180000,9.602735,0.117270,0.142242,-0.020528,0.009065,-0.005862
3.190000,9.792121,0.090830,0.196410,-0.021800,0.004126,-0.007512
3.200000,9.845702,0.251609,0.129944,-0.022575,0.005842,-0.007935
3.210000,9.623757,0.230963,-0.001962,-0.023989,0.007897,-0.007248
3.220000,9.784980,0.210769,0.015866,-0.023720,-0.001047,-0.006086
3.230000,9.846899,0.180906,0.005632,-0.024304,0.002786,-0.007304
3.240000,9.673259,0.180951,-0.054732,-0.023282,0.006671,-0.007100
3.250000,9.661810,0.217428,-0.008727,-0.023671,0.004528,-0.006731
3.260000,9.758050,0.314582,-0.018853,-0.023302,0.006133,-0.007230
3.270000,9.659184,0.211375,-0.041472,-0.022033,0.009599,-0.006951
3.280000,9.765854,0.147457,0.029883,-0.020498,0.008048,-0.006268
3.290000,9.815720,0.281070,0.012297,-0.020107,0.010382,-0.006651
3.300000,9.616606,0.393774,-0.072503,-0.020617,0.015015,-0.006814
3.310000,9.735862,0.317799,-0.030296,-0.020210,0.013138,-0.005550
3.320000,9.860722,0.233391,0.010927,-0.017183,0.013566,-0.003611
3.330000,9.736421,0.260420,-0.053216,-0.016550,0.018184,-0.003899
3.340000,9.738320,0.325858,0.011427,-0.016984,0.016370,-0.004715
3.350000,9.906867,0.425790,0.110937,-0.016095,0.017149,-0.005192
3.360000,9.810307,0.279884,0.030629,-0.014813,0.023812,-0.003971
3.370000,9.772327,0.197978,0.123912,-0.014661,0.019933,-0.004137
3.380000,9.937424,0.367838,0.127394,-0.014854,0.018976,-0.004359
3.390000,9.741946,0.509975,0.019610,-0.016226,0.023719,-0.003732
3.400000,9.747818,0.354745,0.089423,-0.015578,0.021799,-0.002991
3.410000,9.980389,0.323600,0.159976,-0.014908,0.018261,-0.001365
3.420000,9.806230,0.408171,0.086634,-0.015164,0.017863,0.001311
3.430000,9.632072,0.492742,0.013291,-0.015962,0.019310,0.004605
3.440000,9.729484,0.464129,0.064584,-0.016761,0.020757,0.007898
3.450000,9.897231,0.406202,0.148155,-0.016816,0.022724,0.009796
3.460000,9.780227,0.182970,0.128002,-0.017171,0.023144,0.010042
3.470000,9.778904,0.205900,0.167688,-0.017961,0.022579,0.009985
3.480000,9.732559,0.333410,0.070699,-0.018752,0.022014,0.009929
3.490000,9.730579,0.120742,0.095015,-0.019100,0.024208,0.009111
3.500000,9.757409,0.061547,0.135985,-0.019372,0.023282,0.008377
3.510000,9.793500,0.117968,0.171130,-0.019061,0.024214,0.008066
3.520000,9.829591,0.174390,0.206276,-0.018750,0.025147,0.007755
3.530000,9.865682,0.230812,0.241421,-0.018440,0.026079,0.007444
3.540000,9.734035,0.190522,0.215864,-0.018158,0.026909,0.007335
3.550000,9.596271,0.143361,0.187232,-0.018048,0.027128,0.008429
3.560000,9.747943,0.213616,0.250593,-0.017304,0.027263,0.007112
3.570000,9.871064,0.256779,0.305608,-0.016591,0.027144,0.005527
3.580000,9.903524,0.213918,0.334122,-0.016415,0.026528,0.005131
3.590000,9.935984,0.171057,0.362637,-0.016239,0.025913,0.004736
3.600000,9.968443,0.128195,0.391151,-0.016064,0.025298,0.004340
3.610000,9.762567,0.099014,0.442721,-0.015216,0.029975,0.002638
3.620000,9.879240,0.064316,0.527763,-0.013978,0.025732,0.001293
3.630000,9.996760,0.086138,0.504211,-0.013439,0.027756,0.000916
3.640000,9.745745,0.079373,0.583112,-0.014164,0.027233,-0.000491
3.650000,9.874142,0.117075,0.717375,-0.014920,0.023264,-0.000989
3.660000,9.890199,0.133760,0.693740,-0.015842,0.027341,-0.004973
3.670000,9.757990,0.052735,0.754353,-0.015128,0.028073,-0.006271
3.680000,9.906619,0.025960,0.837411,-0.014618,0.027210,-0.006720
3.690000,9.958406,0.161106,0.783661,-0.014612,0.026216,-0.006762
3.700000,9.696116,0.214723,0.753713,-0.015947,0.028328,-0.006985
3.710000,9.794397,0.183501,0.879637,-0.015385,0.023439,-0.006637
3.720000,9.865507,0.153287,0.893334,-0.015280,0.022458,-0.006165
3.730000,9.674611,0.130304,0.838022,-0.017230,0.024569,-0.007376
3.740000,9.540666,0.094397,0.865053,-0.017060,0.025057,-0.006802
3.750000,9.765178,0.304224,0.869999,-0.016327,0.023142,-0.005664
3.760000,9.662201,0.297841,0.833440,-0.016270,0.027249,-0.005770
3.770000,9.477690,0.146329,0.814849,-0.016851,0.027414,-0.005478
3.780000,9.719323,0.151030,0.886798,-0.016510,0.025444,-0.005069
3.790000,9.694909,0.275692,0.859862,-0.016939,0.026181,-0.004701
3.800000,9.533786,0.289483,0.860199,-0.017322,0.025906,-0.004232
3.810000,9.765628,0.147724,0.890909,-0.017556,0.023073,-0.003530
3.820000,9.732373,0.150649,0.877118,-0.017433,0.026526,-0.003900
3.830000,9.454228,0.224210,0.836190,-0.016933,0.027422,-0.006951
3.840000,9.610282,0.349192,0.896264,-0.016568,0.028336,-0.007096
3.850000,9.710138,0.299116,0.792572,-0.016359,0.028359,-0.006653
3.860000,9.593498,0.111172,0.850232,-0.016436,0.024985,-0.007650
3.870000,9.806552,0.150388,0.918616,-0.016211,0.023262,-0.008329
3.880000,9.769336,0.338253,0.894165,-0.015134,0.026375,-0.007818
3.890000,9.701364,0.493553,0.866876,-0.014345,0.028742,-0.006241
3.900000,9.849043,0.353198,0.936851,-0.014050,0.026264,-0.004420
3.910000,9.874025,0.330555,0.934398,-0.013826,0.023908,-0.002881
3.920000,9.898854,0.356641,0.927423,-0.013341,0.025087,-0.001841
3.930000,9.999147,0.374148,0.959172,-0.013106,0.025399,-0.001006
3.940000,10.046363,0.323227,0.963521,-0.013592,0.023214,-0.000764
3.950000,9.915584,0.142714,0.923823,-0.013478,0.028579,-0.000484
3.960000,9.924797,0.200864,0.990015,-0.014578,0.028236,-0.001398
3.970000,9.908108,0.409253,0.934140,-0.013456,0.022757,-0.001576
3.980000,9.758648,0.417866,0.922580,-0.015002,0.026952,-0.002017
3.990000,9.690683,0.246241,1.011174,-0.014966,0.027106,-0.002291
4.000000,9.885217,0.125984,0.993639,-0.014652,0.026712,-0.002539
4.010000,9.703031,0.305097,0.890474,-0.015173,0.028886,-0.002887
4.020000,9.705015,0.286787,0.960056,-0.013806,0.024967,-0.002910
4.030000,9.890257,0.246480,1.044100,-0.014626,0.023912,-0.003028
4.040000,9.750913,0.207335,0.995616,-0.015657,0.028453,-0.002914
4.050000,9.579306,0.161043,0.983458,-0.016514,0.026510,-0.001333
4.060000,9.801531,0.337321,0.973237,-0.016799,0.025949,-0.000881
4.070000,9.739564,0.364042,0.936081,-0.016799,0.026392,-0.001058
4.080000,9.588536,0.175917,0.967021,-0.016008,0.024659,0.001176
4.090000,9.607638,0.201317,0.960094,-0.015846,0.026007,0.001824
4.100000,9.626741,0.226716,0.953167,-0.015685,0.027356,0.002471
4.110000,9.648108,0.211141,0.969470,-0.015721,0.027138,0.002326
4.120000,9.701214,0.135460,1.030354,-0.016149,0.023818,0.000613
4.130000,9.778094,0.189470,1.017711,-0.015205,0.027589,-0.000384
4.140000,9.743581,0.177009,1.051936,-0.014035,0.025946,-0.001292
4.150000,9.755662,0.250299,1.064485,-0.013069,0.025193,-0.002245
4.160000,9.785745,0.367941,1.079616,-0.012965,0.028035,-0.003184
4.170000,9.771235,0.229323,1.184581,-0.013675,0.024010,-0.002916
4.180000,9.957718,0.216926,1.225858,-0.013899,0.021140,-0.002416
4.190000,9.837069,0.282931,1.179739,-0.016124,0.025084,-0.001310
4.200000,9.754140,0.335722,1.147037,-0.016289,0.026134,0.000887
4.210000,9.809246,0.338978,1.170791,-0.016169,0.024066,0.000467
4.220000,9.864351,0.342233,1.194545,-0.016049,0.021998,0.000048
4.230000,9.919456,0.345489,1.218299,-0.015929,0.019930,-0.000372
4.240000,9.974561,0.348745,1.242054,-0.015809,0.017862,-0.000791
4.250000,9.949732,0.408786,1.219111,-0.015956,0.016584,-0.000911
4.260000,9.951635,0.368124,1.190872,-0.016626,0.016852,-0.000442
4.270000,10.060301,0.161983,1.202063,-0.017023,0.016455,-0.000182
4.280000,9.897694,0.290608,1.068130,-0.017247,0.016426,-0.000250
4.290000,9.697834,0.312441,1.011699,-0.016825,0.013950,-0.000080
4.300000,9.711258,0.255374,0.982618,-0.016189,0.010852,-0.000002
4.310000,9.841987,0.078565,1.041761,-0.016501,0.015018,-0.001085
4.320000,9.617735,0.083478,0.845561,-0.016794,0.016918,-0.001669
4.330000,9.590461,0.241347,0.801281,-0.017086,0.018817,-0.002254
4.340000,9.533490,0.349737,0.735421,-0.016330,0.016615,-0.003175
4.350000,9.378654,0.123444,0.604725,-0.016064,0.020120,-0.003688
4.360000,9.432132,0.064264,0.585949,-0.015278,0.019499,-0.004208
4.370000,9.388838,0.160208,0.515735,-0.014781,0.019953,-0.004003
4.380000,9.174545,0.232825,0.364575,-0.014402,0.023588,-0.004382
4.390000,9.302007,0.144255,0.263932,-0.013245,0.025312,-0.004390
4.400000,9.581725,0.182698,0.368235,-0.012796,0.024473,-0.004518
4.410000,9.353281,0.429274,0.368925,-0.013359,0.029192,-0.003520
4.420000,9.362782,0.635370,0.229354,-0.011880,0.030452,0.000071
4.430000,9.192856,0.547618,0.008992,-0.014185,0.035706,0.005172
4.440000,9.418636,0.256305,0.035158,-0.013886,0.033631,0.007591
4.450000,9.340505,0.090125,0.170476,-0.013657,0.034776,0.006136
4.460000,9.513343,0.258655,0.080877,-0.014365,0.038449,0.003194
4.470000,9.395454,0.381598,-0.077555,-0.014978,0.045075,0.000094
4.480000,9.424947,0.386401,-0.060706,-0.014394,0.043869,-0.000421
4.490000,9.518487,0.482458,-0.081980,-0.014107,0.045129,0.000439
4.500000,9.219212,0.596266,-0.180651,-0.014067,0.051203,0.002608
4.510000,9.159630,0.601755,-0.234764,-0.012643,0.052168,0.006223
4.520000,9.398334,0.505110,-0.209598,-0.010896,0.051123,0.008333
4.530000,9.406120,0.267950,-0.247619,-0.009547,0.056339,0.009011
4.540000,9.320815,0.102988,-0.286696,-0.009873,0.059233,0.009092
4.550000,9.251690,0.121828,-0.295515,-0.010317,0.060151,0.008731
4.560000,9.228713,0.280215,-0.399185,-0.008492,0.066869,0.005944
4.570000,9.060817,0.176075,-0.392393,-0.007298,0.071259,0.004283
4.580000,9.324569,0.116967,-0.298727,-0.008652,0.069572,0.003823
4.590000,9.354220,0.173554,-0.344806,-0.009283,0.075281,0.004247
4.600000,9.133499,0.153552,-0.392815,-0.008166,0.080279,0.003279
4.610000,9.267548,0.159686,-0.349722,-0.008813,0.078471,0.003888
4.620000,9.235794,0.108040,-0.371454,-0.007652,0.082382,0.001712
4.630000,9.108676,-0.021055,-0.364417,-0.007037,0.086809,0.000482
4.640000,9.324530,0.045405,-0.235808,-0.007480,0.085416,-0.001021
4.650000,9.481226,0.245492,-0.236683,-0.006606,0.087235,-0.003582
4.660000,9.401989,0.263495,-0.244562,-0.006705,0.089990,-0.002991
4.670000,9.496810,0.197527,-0.203936,-0.006527,0.091566,-0.002681
4.680000,9.912527,0.346337,-0.079048,-0.007054,0.089144,-0.002365
4.690000,9.928148,0.573740,0.153410,-0.007362,0.088842,0.002116
4.700000,9.830488,0.661386,0.465372,-0.007703,0.086796,0.005457
4.710000,10.703830,0.637425,1.099107,-0.008329,0.084161,0.009643
4.720000,10.556826,0.520125,1.386345,-0.010102,0.082665,0.014967
4.730000,10.406569,0.401678,1.646015,-0.012954,0.081845,0.016493
4.740000,10.821242,0.534694,2.147078,-0.013300,0.074753,0.018910
4.750000,11.100461,0.682552,2.279662,-0.013119,0.068909,0.022042
4.760000,11.386400,0.816720,2.406372,-0.012505,0.063494,0.025076
4.770000,11.817955,0.654272,2.405825,-0.010490,0.059464,0.027788
4.780000,11.849685,0.760474,2.451861,-0.008711,0.055192,0.030125
4.790000,11.807539,0.610888,2.634702,-0.007584,0.050250,0.031426
4.800000,11.752388,0.394501,2.850765,-0.005499,0.035915,0.031589
4.810000,11.878391,0.128445,3.135580,-0.004347,0.022403,0.029477
4.820000,11.776925,0.067896,3.246025,-0.004767,0.016579,0.026416
4.830000,11.867547,0.256218,3.396234,-0.005351,-0.001159,0.023590
4.840000,11.985844,0.585961,3.683129,-0.005557,-0.014356,0.022706
4.850000,12.151486,0.496488,3.640200,-0.005248,-0.023945,0.024059
4.860000,12.094602,0.326384,3.487584,-0.004503,-0.035275,0.024031
4.870000,11.800581,0.203107,3.325518,-0.003232,-0.048293,0.021990
4.880000,11.506559,0.079831,3.163452,-0.001961,-0.061311,0.019949
4.890000,11.312538,-0.040757,3.060062,-0.000690,-0.074329,0.017907
4.900000,11.118369,-0.026139,3.004712,0.001107,-0.078970,0.013963
4.910000,11.108916,0.047122,3.108224,0.001795,-0.090379,0.012390
4.920000,10.821253,0.146400,2.846669,0.003156,-0.098049,0.010866
4.930000,10.441459,0.204371,2.484175,0.005184,-0.102013,0.009391
4.940000,10.079098,0.116359,2.128361,0.005320,-0.109042,0.010028
4.950000,9.967257,0.017227,1.971857,0.006307,-0.114426,0.009849
4.960000,10.034524,-0.069556,1.780340,0.007768,-0.119729,0.005536
4.970000,9.780285,-0.304958,1.506784,0.009568,-0.124972,-0.001742
4.980000,9.489460,-0.523528,1.448256,0.010790,-0.128582,-0.008150
4.990000,9.355288,-0.381905,1.410879,0.010878,-0.127765,-0.014860
5.000000,8.952095,-0.262554,1.260829,0.009037,-0.124382,-0.022001
5.010000,8.873469,-0.178261,1.332778,0.007187,-0.127044,-0.027626
5.020000,8.881138,-0.080270,1.241430,0.005864,-0.122964,-0.030474
5.030000,8.790604,-0.014447,1.017910,0.004684,-0.115379,-0.031401
5.040000,8.690296,-0.051668,0.819730,0.003842,-0.112471,-0.032643
5.050000,8.746245,0.152977,0.655582,0.002850,-0.110030,-0.033679
5.060000,8.471437,0.256063,0.553477,0.001364,-0.102537,-0.031431
5.070000,8.315223,0.166867,0.582157,0.002807,-0.099794,-0.030844
5.080000,8.473370,0.209323,0.600797,0.003080,-0.096192,-0.028413
5.090000,8.336015,0.257001,0.523732,0.001894,-0.085916,-0.025197
5.100000,8.209951,0.295218,0.551538,0.002115,-0.081823,-0.024091
5.110000,8.370371,0.471135,0.549444,0.001782,-0.078433,-0.022197
5.120000,8.363885,0.539702,0.551134,0.001739,-0.070921,-0.020389
5.130000,8.326530,0.515034,0.429908,0.001818,-0.061948,-0.018642
5.140000,8.501691,0.521241,0.421953,0.001120,-0.058534,-0.016886
5.150000,8.491846,0.793456,0.328062,0.001279,-0.048020,-0.014718
5.160000,8.479671,0.718286,0.385858,0.002654,-0.043577,-0.014147
5.170000,8.861271,0.620147,0.476094,0.003567,-0.040391,-0.012882
5.180000,8.923339,0.629480,0.458635,0.004590,-0.031519,-0.013315
5.190000,8.829227,0.720227,0.497818,0.005588,-0.028592,-0.011305
5.200000,8.823158,0.799970,0.561541,0.006570,-0.026697,-0.008849
5.210000,9.151369,0.803509,0.687409,0.007490,-0.021278,-0.007682
5.220000,9.106062,0.540575,0.589573,0.009116,-0.013427,-0.005944
5.230000,9.301662,0.607905,0.680001,0.009864,-0.014424,-0.003701
5.240000,9.382367,0.876133,0.657827,0.012311,-0.007862,-0.001490
5.250000,9.426867,0.856903,0.679269,0.014533,-0.005441,0.001731
5.260000,9.512999,0.661809,0.740374,0.015424,-0.005166,0.004406
5.270000,9.661436,0.605962,0.807611,0.015424,-0.000209,0.009107
5.280000,9.466021,0.647045,0.739426,0.016147,0.000943,0.013212
5.290000,9.609822,0.664183,0.793116,0.016724,-0.003875,0.016481
5.300000,9.822492,0.503968,0.820196,0.016841,-0.005154,0.019196
5.310000,9.737470,0.316321,0.830485,0.017536,-0.004942,0.020177
5.320000,9.803625,0.373351,0.968532,0.018816,-0.004367,0.021045
5.330000,9.841445,0.555404,0.941908,0.018482,-0.005459,0.022442
5.340000,9.746182,0.350469,0.856879,0.018189,-0.005940,0.022344
5.350000,9.798166,0.323658,0.854240,0.018140,-0.007921,0.020565
5.360000,9.851385,0.298659,0.852246,0.018103,-0.010083,0.018659
5.370000,9.904604,0.273660,0.850253,0.018067,-0.012246,0.016753
5.380000,9.987822,0.240116,0.853726,0.018030,-0.014408,0.014847
5.390000,10.292669,0.148769,0.896820,0.017874,-0.018048,0.012447
5.400000,10.281881,0.166751,0.879595,0.019250,-0.016251,0.010079
5.410000,10.271092,0.184732,0.862371,0.019353,-0.017076,0.008068
5.420000,10.261774,0.205055,0.844778,0.019456,-0.017901,0.006058
5.430000,10.279319,0.268160,0.820441,0.019799,-0.018843,0.004184
5.440000,10.296864,0.331266,0.796104,0.022004,-0.020700,0.003371
5.450000,10.262708,0.329758,0.770683,0.023703,-0.026709,0.000787
5.460000,10.162805,0.481015,0.645765,0.023976,-0.025325,0.000458
5.470000,10.106729,0.347539,0.640228,0.025145,-0.027085,0.001087
5.480000,10.117486,0.346786,0.660379,0.026953,-0.029638,0.000875
5.490000,10.136658,0.378931,0.679118,0.028518,-0.031585,-0.000156
5.500000,10.155830,0.411077,0.697858,0.030083,-0.033531,-0.001187
5.510000,10.175001,0.443222,0.716597,0.031648,-0.035478,-0.002217
5.520000,10.052123,0.567238,0.610348,0.032818,-0.034920,-0.002766
5.530000,9.837944,0.469218,0.595999,0.034742,-0.035315,-0.003645
5.540000,9.990873,0.484379,0.603019,0.037406,-0.040274,-0.003574
5.550000,10.007286,0.589109,0.540594,0.038101,-0.038587,-0.003872
5.560000,9.716823,0.640015,0.434609,0.039574,-0.036345,-0.005600
5.570000,9.735430,0.622414,0.461764,0.039771,-0.040779,-0.005107
5.580000,9.667955,0.592534,0.424011,0.040955,-0.042526,-0.005552
5.590000,9.598949,0.562436,0.385103,0.042935,-0.042101,-0.006755
5.600000,9.640278,0.601758,0.455291,0.045186,-0.043246,-0.008394
5.610000,9.706149,0.715277,0.444853,0.046822,-0.043998,-0.009432
5.620000,9.689516,0.777551,0.341046,0.047563,-0.042314,-0.009365
5.630000,9.587136,0.595635,0.348056,0.048227,-0.042136,-0.009153
5.640000,9.712473,0.555236,0.407891,0.049101,-0.044776,-0.008770
5.650000,9.680490,0.648801,0.347501,0.051155,-0.043724,-0.009021
5.660000,9.648507,0.742366,0.287111,0.053209,-0.042672,-0.009271
5.670000,9.779859,0.749216,0.286097,0.055572,-0.040740,-0.009598
5.680000,9.737330,0.647630,0.310633,0.058623,-0.037201,-0.009991
5.690000,9.551218,0.651717,0.313589,0.059979,-0.039809,-0.009574
5.700000,9.573294,0.782137,0.314411,0.061982,-0.039610,-0.009407
5.710000,9.754933,0.898627,0.274619,0.064203,-0.038458,-0.009325
5.720000,9.692148,0.773344,0.246533,0.066770,-0.035362,-0.009445
5.730000,9.749610,0.693029,0.378165,0.071038,-0.037559,-0.008865
5.740000,9.715659,0.956370,0.329414,0.072721,-0.034866,-0.008360
5.750000,9.674072,1.052069,0.243461,0.075077,-0.034211,-0.007902
5.760000,9.842672,0.911354,0.287358,0.078160,-0.034975,-0.007463
5.770000,9.875019,0.898240,0.348184,0.081102,-0.034326,-0.006739
5.780000,9.859399,1.025370,0.351872,0.083466,-0.035205,-0.004595
5.790000,9.843778,1.152500,0.355560,0.085830,-0.036085,-0.002451
5.800000,9.830004,1.128213,0.391277,0.088129,-0.034715,-0.000759
5.810000,9.770740,0.988281,0.398285,0.089768,-0.032834,-0.000390
5.820000,9.878402,1.126496,0.517830,0.091407,-0.032834,-0.000321
5.830000,9.832632,1.253672,0.448560,0.094275,-0.032834,-0.000403
5.840000,9.657950,1.225395,0.486525,0.100123,-0.033202,0.000378
5.850000,9.665257,1.248281,0.468740,0.103041,-0.035148,-0.000048
5.860000,9.672564,1.271167,0.450956,0.105960,-0.037093,-0.000474
5.870000,9.679871,1.294052,0.433171,0.108878,-0.039039,-0.000899
5.880000,9.687178,1.316938,0.415386,0.111796,-0.040984,-0.001325
5.890000,9.965902,1.313536,0.535197,0.114733,-0.042150,-0.001506
5.900000,9.766965,1.274278,0.534437,0.117777,-0.039401,-0.000457
5.910000,9.724504,1.299940,0.494027,0.122575,-0.039718,0.000764
5.920000,9.893628,1.384666,0.459245,0.126224,-0.040430,0.003167
5.930000,9.831233,1.288002,0.439758,0.130007,-0.039505,0.004600
5.940000,9.851203,1.162782,0.483874,0.133520,-0.041584,0.005665
5.950000,9.964286,1.178021,0.585509,0.137634,-0.043247,0.005311
5.960000,9.959339,1.165282,0.532083,0.140897,-0.042677,0.005701
5.970000,9.952325,1.150252,0.476174,0.143959,-0.042257,0.006414
5.980000,9.945351,1.135328,0.420390,0.147021,-0.041838,0.007127
5.990000,9.973863,1.215381,0.477962,0.150608,-0.040678,0.007364
6.000000,9.657530,1.033604,0.407574,0.154849,-0.038445,0.006720
6.010000,9.788855,1.076671,0.479981,0.157699,-0.037842,0.006720
6.020000,9.749808,1.083929,0.398283,0.160549,-0.037239,0.006720
6.030000,9.768663,1.036327,0.365714,0.164880,-0.037539,0.007121
6.040000,9.873468,0.941960,0.400407,0.168244,-0.043132,0.007017
6.050000,9.765537,0.996996,0.402833,0.169859,-0.041915,0.005904
6.060000,9.609378,1.120219,0.324522,0.170959,-0.042091,0.006739
6.070000,9.825878,1.072042,0.382781,0.172466,-0.046583,0.008582
6.080000,9.842294,0.960609,0.318926,0.174062,-0.043479,0.008226
6.090000,9.714927,0.836440,0.302317,0.175613,-0.042643,0.007789
6.100000,9.749115,0.853560,0.390508,0.177353,-0.046214,0.007789
6.110000,9.727144,1.097349,0.279182,0.178042,-0.041451,0.007789
6.120000,9.677741,0.904726,0.347049,0.178881,-0.043572,0.007687
6.130000,9.808747,0.870282,0.367684,0.180093,-0.045630,0.008199
6.140000,9.779118,0.984844,0.291002,0.181492,-0.043649,0.007807
6.150000,9.711661,1.121657,0.197576,0.182941,-0.042441,0.007927
6.160000,9.831631,1.013012,0.289505,0.184475,-0.044735,0.007637
6.170000,9.886530,0.905355,0.362359,0.186076,-0.046786,0.007257
6.180000,9.756508,0.918501,0.335832,0.188215,-0.043416,0.006381
6.190000,9.758061,1.102983,0.324834,0.190074,-0.043289,0.005444
6.200000,9.809724,1.264835,0.344149,0.191637,-0.044171,0.005368
6.210000,9.753184,1.076899,0.308900,0.194874,-0.040764,0.004738
6.220000,9.903709,1.039518,0.414676,0.197944,-0.046049,0.004726
6.230000,9.881647,1.182507,0.342076,0.200324,-0.041902,0.003685
6.240000,9.726785,1.413182,0.321059,0.203309,-0.037477,0.003300
6.250000,9.763419,1.245975,0.372019,0.207302,-0.038528,0.003322
6.260000,10.008352,1.141902,0.542862,0.212084,-0.039444,0.002377
6.270000,9.822058,1.215865,0.316953,0.216579,-0.030862,0.002289
6.280000,9.731974,1.295939,0.353058,0.219032,-0.032043,0.002107
6.290000,9.817306,1.237669,0.455073,0.224431,-0.034829,0.000850
6.300000,9.629326,0.933544,0.491894,0.229450,-0.030985,-0.002618
6.310000,9.660222,0.868829,0.532594,0.233912,-0.035075,-0.006970
6.320000,9.683345,1.023111,0.490716,0.237953,-0.036923,-0.013825
6.330000,9.573506,1.194883,0.487113,0.242847,-0.035989,-0.019724
6.340000,9.574972,1.046196,0.707308,0.245921,-0.041924,-0.022178
6.350000,9.619329,0.947148,0.811954,0.249808,-0.041117,-0.024231
6.360000,9.572378,1.103507,0.463061,0.253682,-0.040235,-0.026299
6.370000,9.648769,1.230562,0.193880,0.256263,-0.030870,-0.030106
6.380000,9.672904,0.902412,0.394359,0.263550,-0.042655,-0.034000
6.390000,9.555855,0.760671,0.479246,0.268707,-0.048549,-0.041288
6.400000,9.506865,0.645964,0.759705,0.274206,-0.055165,-0.049451
6.410000,9.537497,0.818980,0.858738,0.275918,-0.056517,-0.054785
6.420000,9.590283,0.854493,0.634445,0.279398,-0.054865,-0.062756
6.430000,9.434604,0.770904,0.472574,0.281895,-0.057967,-0.066151
6.440000,9.761515,0.766192,0.337803,0.284820,-0.063377,-0.069643
6.450000,9.677581,0.824440,0.452947,0.288974,-0.072733,-0.075974
6.460000,9.184012,0.819195,0.486163,0.291847,-0.076132,-0.084322
6.470000,9.402333,0.977903,0.455165,0.294171,-0.080146,-0.088820
6.480000,9.543221,1.095636,0.382647,0.297371,-0.088097,-0.091003
6.490000,9.587991,1.400062,0.155825,0.299462,-0.092263,-0.089093
6.500000,9.785143,2.059749,-0.138488,0.301069,-0.096443,-0.085958
6.510000,9.749970,2.353554,0.015204,0.300903,-0.101452,-0.080282
6.520000,9.590464,2.380712,0.451728,0.298575,-0.106834,-0.071282
6.530000,9.599094,2.522288,0.641774,0.293453,-0.102958,-0.054534
6.540000,10.021247,3.317601,-0.179179,0.288332,-0.099083,-0.037786
6.550000,10.089692,3.569766,-0.357230,0.281037,-0.085094,-0.010314
6.560000,10.091459,3.629874,-0.364642,0.275362,-0.072808,0.017527
6.570000,10.216509,3.221027,-0.394380,0.272924,-0.066079,0.040328
6.580000,9.845912,2.815273,-0.050092,0.268006,-0.053933,0.074395
6.590000,9.962526,3.143108,0.290438,0.263560,-0.050721,0.088891
6.600000,9.895842,3.526018,0.390055,0.256538,-0.033907,0.109233
6.610000,9.816205,3.292247,0.262751,0.252621,-0.018362,0.128052
6.620000,10.167161,3.173783,0.166884,0.251737,-0.013629,0.146281
6.630000,10.165556,3.272143,0.079220,0.251957,-0.005434,0.166190
6.640000,9.885385,3.193527,0.283363,0.252177,0.002761,0.186100
6.650000,9.761396,3.038414,0.245950,0.252666,0.014300,0.203819
6.660000,9.765348,2.694146,0.160059,0.255879,0.023409,0.218734
6.670000,9.627009,2.343886,0.242332,0.260662,0.025903,0.230002
6.680000,9.572223,2.131116,0.437095,0.266340,0.027253,0.236935
6.690000,9.378573,1.639655,0.716137,0.273411,0.029903,0.240554
6.700000,9.269131,1.108718,0.843687,0.279174,0.030338,0.238588
6.710000,9.525023,0.722488,1.189137,0.287076,0.023377,0.229516
6.720000,9.418845,0.687532,0.864657,0.293617,0.029619,0.217651
6.730000,9.387409,0.327626,0.753663,0.299364,0.020600,0.203174
6.740000,9.843986,0.038301,0.632894,0.306956,0.017312,0.185562
6.750000,10.008369,-0.178987,0.744208,0.314470,0.014193,0.168043
6.760000,10.039981,-0.363543,0.960978,0.320605,0.014018,0.152151
6.770000,10.196957,-0.615645,0.939938,0.326740,0.013843,0.136258
6.780000,10.396992,-0.915279,0.737390,0.335727,0.020482,0.115164
6.790000,10.462864,-1.245255,0.211969,0.348403,0.028428,0.085161
6.800000,10.322090,-1.284731,0.251600,0.356419,0.026598,0.063192
6.810000,10.357959,-1.126907,0.352990,0.361416,0.029197,0.049201
6.820000,10.235654,-1.133992,0.511529,0.366532,0.031909,0.035118
6.830000,10.447256,-1.162330,0.389926,0.373193,0.036089,0.019930
6.840000,10.423687,-1.183728,0.188982,0.378112,0.038290,0.009445
6.850000,10.279945,-1.177521,0.049188,0.380797,0.041101,-0.006758
6.860000,10.320986,-1.120124,0.001308,0.382855,0.042661,-0.022398
6.870000,10.139873,-1.145217,-0.104968,0.384194,0.039497,-0.032379
6.880000,10.018073,-1.094838,-0.098989,0.381335,0.044566,-0.052986
6.890000,10.007361,-0.966084,-0.040559,0.378868,0.043501,-0.061002
6.900000,10.108671,-0.734854,0.072429,0.376306,0.042630,-0.069317
6.910000,10.018450,-0.491854,0.153149,0.368615,0.051246,-0.092563
6.920000,10.017935,-0.169541,0.230759,0.362174,0.047709,-0.098943
6.930000,10.002080,0.039494,0.201241,0.356878,0.051176,-0.105754
6.940000,9.720127,0.174676,0.109510,0.351981,0.054026,-0.111855
6.950000,9.892142,0.502790,-0.008454,0.346646,0.051034,-0.113662
6.960000,9.830707,0.716945,-0.005869,0.340564,0.052338,-0.114119
6.970000,9.712732,0.939668,0.217914,0.336702,0.051174,-0.113308
6.980000,9.798118,1.211134,0.494482,0.332290,0.047541,-0.110626
6.990000,9.564296,1.523232,0.552947,0.329199,0.049465,-0.106004
7.000000,9.396006,1.753356,0.700260,0.328397,0.047842,-0.100930
7.010000,9.528134,1.743999,0.826952,0.327483,0.043550,-0.094417
7.020000,9.541602,1.759485,0.857129,0.327118,0.043769,-0.088168
7.030000,9.514389,1.911062,0.896322,0.327858,0.042027,-0.082785
7.040000,9.485584,2.100735,0.944167,0.328913,0.038798,-0.077570
7.050000,9.503376,2.171193,1.050319,0.331431,0.038650,-0.068221
7.060000,9.428492,2.158250,0.986528,0.335015,0.039930,-0.063998
7.070000,9.524356,2.335663,1.212853,0.339407,0.033812,-0.059363
7.080000,9.468636,2.551995,1.242128,0.343947,0.033268,-0.053776
7.090000,9.308754,2.526489,1.225646,0.349588,0.034783,-0.048081
7.100000,9.421095,2.501769,1.270191,0.356010,0.034996,-0.042075
7.110000,9.533435,2.477049,1.314735,0.362444,0.035176,-0.036062
7.120000,9.267596,2.510670,1.272493,0.368552,0.032553,-0.029334
7.130000,9.521707,2.595763,1.269036,0.373292,0.028526,-0.021989
7.140000,9.574111,2.483219,1.220133,0.377641,0.028792,-0.016520
7.150000,9.501940,2.330204,1.127485,0.382828,0.029377,-0.010427
7.160000,9.589789,2.451126,1.184893,0.386744,0.025822,-0.003771
7.170000,9.583639,2.426256,1.058780,0.390148,0.027599,0.003511
7.180000,9.506389,2.122836,1.106149,0.392290,0.026713,0.008763
7.190000,9.759967,1.886609,1.082991,0.395553,0.023377,0.013954
7.200000,9.697877,1.967449,1.086534,0.396749,0.024124,0.017691
7.210000,9.553277,1.832637,0.983917,0.397853,0.026379,0.020154
7.220000,9.726319,1.647234,0.938596,0.398096,0.023213,0.024293
7.230000,9.771375,1.428903,0.849153,0.398284,0.021922,0.027758
7.240000,9.654439,1.289955,0.751364,0.398441,0.023414,0.029710
7.250000,9.741809,1.352712,0.724447,0.398317,0.019966,0.032290
7.260000,9.749332,1.262262,0.650940,0.396936,0.020965,0.033404
7.270000,9.690269,1.000321,0.645836,0.394713,0.020288,0.035407
7.280000,9.852848,0.974234,0.619357,0.393391,0.015530,0.037513
7.290000,9.705569,0.951277,0.569503,0.392037,0.015776,0.038666
7.300000,9.655458,0.835790,0.554824,0.390357,0.014887,0.040177
7.310000,9.834179,0.788632,0.518473,0.388578,0.012681,0.041571
7.320000,9.796047,0.688634,0.409168,0.386926,0.015390,0.042567
7.330000,9.665914,0.607543,0.380119,0.386066,0.016794,0.042694
7.340000,9.664420,0.594736,0.392945,0.385503,0.014542,0.042292
7.350000,9.794224,0.634332,0.358341,0.382849,0.018004,0.042542
7.360000,9.640858,0.414461,0.323851,0.379878,0.017108,0.041306
7.370000,9.894904,0.489750,0.367946,0.379175,0.012256,0.040450
7.380000,9.766889,0.534731,0.338652,0.378921,0.016830,0.038163
7.390000,9.686030,0.522181,0.353038,0.377468,0.019434,0.035224
7.400000,9.813138,0.518884,0.425871,0.377401,0.017935,0.032815
7.410000,9.735190,0.465066,0.404613,0.377477,0.023670,0.028942
7.420000,9.652234,0.393486,0.373164,0.376655,0.025371,0.023290
7.430000,9.755417,0.583599,0.466686,0.376396,0.024507,0.019012
7.440000,9.736438,0.616210,0.433767,0.376293,0.029814,0.014803
7.450000,9.637914,0.526903,0.402282,0.376293,0.032674,0.012748
7.460000,9.779963,0.636408,0.566841,0.378110,0.029443,0.005434
7.470000,9.574865,0.804871,0.448254,0.378096,0.036486,-0.002005
7.480000,9.568707,0.827002,0.496474,0.378972,0.036028,-0.003623
7.490000,9.877639,0.813720,0.674802,0.379930,0.032500,-0.006204
7.500000,9.856431,0.826398,0.681274,0.380398,0.036175,-0.008919
7.510000,9.683351,1.022982,0.762066,0.381562,0.036575,-0.012632
7.520000,9.924313,1.278199,0.740517,0.383776,0.034647,-0.012255
7.530000,9.892812,1.179963,0.756623,0.383776,0.037682,-0.012650
7.540000,9.976648,1.207699,0.795705,0.384694,0.034754,-0.011758
7.550000,9.972423,1.291833,0.852750,0.385481,0.033929,-0.011802
7.560000,9.848310,1.423972,0.896691,0.385603,0.035941,-0.012141
7.570000,9.928127,1.389514,0.899624,0.385678,0.035152,-0.010047
7.580000,10.101145,1.329968,0.947342,0.386946,0.033139,-0.008527
7.590000,9.827047,1.377490,0.889809,0.387065,0.035173,-0.008858
7.600000,9.778659,1.565036,0.921350,0.388008,0.031277,-0.007717
7.610000,9.975210,1.640688,0.896110,0.388598,0.030033,-0.006047
7.620000,9.834790,1.422047,0.884390,0.388714,0.032325,-0.005243
7.630000,9.826779,1.403311,0.901222,0.388717,0.030123,-0.003657
7.640000,9.822506,1.684400,0.900614,0.388663,0.028141,-0.000260
7.650000,9.564031,1.695148,0.846872,0.389154,0.031168,0.002086
7.660000,9.695963,1.431738,0.877869,0.389697,0.027410,0.004991
7.670000,9.755620,1.478478,0.870220,0.390076,0.030041,0.008116
7.680000,9.589448,1.534986,0.746568,0.390456,0.031418,0.010695
7.690000,9.456671,1.548844,0.835979,0.390866,0.027927,0.011824
7.700000,9.704055,1.452836,0.782447,0.391459,0.030213,0.016749
7.710000,9.520696,1.265396,0.764016,0.392218,0.031027,0.018437
7.720000,9.503746,1.290051,0.752535,0.393714,0.031039,0.019492
7.730000,9.640745,1.359709,0.780112,0.393325,0.031190,0.020995
7.740000,9.533733,1.188036,0.790558,0.392071,0.032433,0.023151
7.750000,9.651848,1.085246,0.843749,0.392087,0.029540,0.024928
7.760000,9.742018,1.130935,0.718471,0.390875,0.029755,0.025798
7.770000,9.735818,1.124821,0.708762,0.389724,0.028951,0.027369
7.780000,9.726398,1.104803,0.741439,0.388904,0.026642,0.029231
7.790000,9.850368,0.996305,0.826746,0.388120,0.025418,0.032225
7.800000,9.632377,0.864768,0.800122,0.387434,0.029459,0.035277
7.810000,9.743259,0.935071,0.739958,0.385372,0.025213,0.035132
7.820000,9.899567,0.938040,0.687302,0.383767,0.025679,0.035327
7.830000,9.722069,0.834921,0.678437,0.383506,0.030763,0.036761
7.840000,9.803888,0.776388,0.741528,0.379559,0.023162,0.036921
7.850000,9.934324,0.753626,0.690108,0.377625,0.023450,0.036456
7.860000,9.723366,0.792792,0.663567,0.375679,0.028120,0.035230
7.870000,9.778555,0.780304,0.697765,0.374325,0.024366,0.034559
7.880000,9.905224,0.700184,0.692809,0.373017,0.022035,0.033390
7.890000,9.732727,0.595574,0.590069,0.372126,0.025331,0.030083
7.900000,9.862714,0.778218,0.664610,0.372745,0.022590,0.027144
7.910000,9.811219,0.807845,0.623750,0.373334,0.026461,0.023585
7.920000,9.697797,0.689555,0.698359,0.374081,0.024419,0.021302
7.930000,9.906539,0.636122,0.742640,0.370362,0.017939,0.017727
7.940000,9.887443,0.855273,0.728512,0.371002,0.021981,0.014665
7.950000,9.609635,0.937238,0.648283,0.372595,0.026630,0.013312
7.960000,9.836678,0.980550,0.723052,0.373421,0.020264,0.013060
7.970000,9.928049,0.863942,0.806798,0.372291,0.020031,0.009928
7.980000,9.742228,0.843085,0.741349,0.373416,0.025059,0.008652
7.990000,9.897596,1.162538,0.787980,0.374142,0.021526,0.009163
8.000000,9.926209,1.200835,0.795322,0.376129,0.022417,0.008958
8.010000,9.848431,1.069540,0.830286,0.375486,0.021694,0.008154
8.020000,9.877214,0.908612,0.913653,0.375266,0.021390,0.007733
8.030000,9.887607,1.119541,0.924566,0.375815,0.021848,0.008008
8.040000,9.764872,1.245942,0.905984,0.378226,0.025479,0.007933
8.050000,9.826317,1.167684,0.965069,0.376991,0.022023,0.006781
8.060000,9.892069,1.036745,0.950768,0.376176,0.022964,0.005288
8.070000,9.800171,1.039167,0.873011,0.376084,0.024970,0.003505
8.080000,9.819399,1.224092,0.895513,0.378064,0.023094,0.001212
8.090000,9.698485,1.122968,0.881607,0.378703,0.024981,-0.002363
8.100000,9.645353,0.954394,0.836068,0.379465,0.023909,-0.005828
8.110000,9.875819,1.121022,0.926956,0.379109,0.020692,-0.006478
8.120000,9.640333,1.410625,0.805500,0.377644,0.026750,-0.007228
8.130000,9.627540,1.241647,0.794632,0.380653,0.024858,-0.006013
8.140000,9.841304,1.245662,0.820912,0.380056,0.020442,-0.004647
8.150000,9.734533,1.302285,0.791477,0.380492,0.023929,-0.002263
8.160000,9.606026,1.391474,0.767061,0.380000,0.025564,-0.000444
8.170000,9.827336,1.359845,0.793793,0.379385,0.020344,0.004299
8.180000,9.732059,1.221768,0.742611,0.381165,0.022304,0.009200
8.190000,9.795263,1.196239,0.813414,0.378484,0.017350,0.010458
8.200000,9.870422,1.234827,0.781383,0.377757,0.016589,0.013205
8.210000,9.693735,1.155189,0.774519,0.378736,0.018842,0.017143
8.220000,9.936330,1.084832,0.818356,0.375285,0.012314,0.016573
8.230000,9.883894,1.050098,0.784721,0.376805,0.014710,0.017741
8.240000,9.687480,0.952498,0.702223,0.375134,0.014824,0.015528
8.250000,9.983044,1.109775,0.814080,0.375474,0.006305,0.014836
8.260000,9.769255,0.988691,0.668989,0.374002,0.011603,0.012674
8.270000,9.665527,0.923107,0.650544,0.372904,0.006623,0.010648
8.280000,9.812745,0.931305,0.667298,0.372190,0.003810,0.008634
8.290000,9.650312,0.982812,0.580737,0.372873,0.008437,0.006768
8.300000,9.653349,1.042248,0.601562,0.372539,0.005261,0.005348
8.310000,9.802141,1.024268,0.649002,0.372433,0.004092,0.003488
8.320000,9.665536,0.974422,0.646732,0.372582,0.005971,0.001787
8.330000,9.631874,1.110097,0.632694,0.372533,0.005798,0.001939
8.340000,9.762292,1.226820,0.622061,0.372890,0.002380,0.003054
8.350000,9.748682,1.175245,0.540401,0.373111,0.003487,0.003054
8.360000,9.766430,1.156196,0.625752,0.373322,0.003330,0.002929
8.370000,9.773499,1.137420,0.705902,0.373518,0.001466,0.002635
8.380000,9.699859,1.097197,0.639688,0.373604,0.001876,0.002299
8.390000,9.720938,1.056669,0.596484,0.373672,0.002629,0.001956
8.400000,9.789818,1.073354,0.546254,0.372982,0.005940,0.001475
8.410000,9.627747,1.199564,0.645317,0.374873,0.007389,0.000517
8.420000,9.966886,1.211139,0.692773,0.374645,0.004349,-0.000394
8.430000,9.661517,0.985458,0.504681,0.373886,0.009420,-0.001081
8.440000,9.833732,1.197311,0.609952,0.373818,0.005748,-0.000964
8.450000,9.896507,1.366519,0.557008,0.375365,0.006911,-0.001081
8.460000,9.712443,1.236082,0.514892,0.375230,0.012421,-0.001216
8.470000,9.866560,1.236688,0.621102,0.373222,0.007611,-0.000280
8.480000,9.872005,1.298210,0.576903,0.373923,0.008582,0.001767
8.490000,9.853025,1.324618,0.604687,0.373319,0.011583,0.004360
8.500000,9.834044,1.351026,0.632470,0.373177,0.009739,0.005424
8.510000,9.698937,1.222100,0.535727,0.372818,0.009853,0.006262
8.520000,9.671790,1.158289,0.526382,0.372066,0.013505,0.006691
8.530000,9.695410,1.126555,0.558657,0.371859,0.013062,0.007717
8.540000,9.719031,1.094821,0.590931,0.371691,0.012331,0.008785
8.550000,9.738073,1.084942,0.605178,0.371372,0.011636,0.009697
8.560000,9.749255,1.112596,0.588466,0.370511,0.011072,0.010047
8.570000,9.760437,1.140250,0.571753,0.369651,0.010507,0.010396
8.580000,9.771619,1.167904,0.555040,0.368790,0.009942,0.010746
8.590000,9.782800,1.195558,0.538328,0.367929,0.009377,0.011096
8.600000,9.828681,1.223299,0.553138,0.367069,0.008812,0.011445
8.610000,9.830029,1.214599,0.554294,0.365277,0.008445,0.011177
8.620000,9.685729,1.150866,0.479458,0.365612,0.014516,0.013006
8.630000,9.691083,1.140158,0.527186,0.365141,0.014542,0.012587
8.640000,9.696437,1.129450,0.574914,0.364670,0.014568,0.012169
8.650000,9.701791,1.118742,0.622642,0.364199,0.014595,0.011750
8.660000,9.683024,1.091877,0.610868,0.363728,0.014621,0.011331
8.670000,9.637248,1.046924,0.532473,0.363257,0.014647,0.010912
8.680000,9.682620,1.076445,0.588177,0.362911,0.010539,0.009540
8.690000,9.702393,1.104976,0.652110,0.363188,0.009230,0.007855
8.700000,9.657438,1.085746,0.632621,0.363651,0.010805,0.006465
8.710000,9.612482,1.066516,0.613131,0.364114,0.012379,0.005076
8.720000,9.567526,1.047287,0.593642,0.364577,0.013954,0.003687
8.730000,9.527190,1.061786,0.550660,0.365041,0.015528,0.002298
8.740000,9.563522,1.148869,0.528337,0.365100,0.015702,0.002166
8.750000,9.633708,1.191704,0.579429,0.365042,0.015470,0.002398
8.760000,9.703894,1.234538,0.630520,0.365283,0.014884,0.002557
8.770000,9.753325,1.257573,0.657876,0.367246,0.012266,0.002296
8.780000,9.680472,1.163958,0.545387,0.364492,0.017779,0.000513
8.790000,9.688458,1.097222,0.607817,0.363605,0.012719,0.001701
8.800000,9.638022,1.130175,0.569265,0.362920,0.015117,0.002842
8.810000,9.570118,1.174342,0.496554,0.362153,0.012899,0.003816
8.820000,9.758093,1.200545,0.547478,0.361348,0.008514,0.004711
8.830000,9.880389,1.201598,0.577531,0.358999,0.011131,0.005391
8.840000,9.834713,1.164386,0.544698,0.357636,0.010489,0.007075
8.850000,9.789038,1.127175,0.511864,0.356226,0.009835,0.008710
8.860000,9.743363,1.089964,0.479031,0.354485,0.009093,0.009995
8.870000,9.714742,1.069748,0.444172,0.352743,0.008351,0.011279
8.880000,9.732288,1.095543,0.403830,0.351002,0.007609,0.012564
8.890000,9.749835,1.121338,0.363488,0.349261,0.006867,0.013848
8.900000,9.767381,1.147133,0.323146,0.347520,0.006124,0.015133
8.910000,9.787061,1.155827,0.300514,0.346054,0.006611,0.015643
8.920000,9.812305,1.119942,0.324049,0.344668,0.007459,0.015926
8.930000,9.837549,1.084057,0.347584,0.343283,0.008308,0.016208
8.940000,9.862793,1.048172,0.371118,0.341898,0.009156,0.016491
8.950000,9.888036,1.012287,0.394653,0.340513,0.010004,0.016774
8.960000,9.913280,0.976402,0.418188,0.339311,0.010464,0.016549
8.970000,9.938524,0.940517,0.441723,0.338422,0.010266,0.015461
8.980000,9.963767,0.904633,0.465258,0.337532,0.010069,0.014373
8.990000,9.822146,0.832634,0.437638,0.336927,0.010588,0.013104
9.000000,9.785589,0.762023,0.466516,0.336828,0.012340,0.011356
9.010000,9.915722,0.787234,0.517549,0.333724,0.006782,0.009840
9.020000,9.962044,0.829639,0.517039,0.333021,0.008963,0.009206
9.030000,10.008365,0.872044,0.516528,0.331693,0.010982,0.008955
9.040000,9.973715,0.895582,0.469544,0.327989,0.012383,0.010156
9.050000,9.768633,0.842579,0.375254,0.325159,0.006138,0.011372
9.060000,9.740918,0.795890,0.388045,0.325325,0.003886,0.012844
9.070000,9.680392,0.789674,0.262303,0.321227,0.009032,0.011510
9.080000,9.739892,0.784265,0.298622,0.317863,0.010253,0.011161
9.090000,9.793776,0.773757,0.333748,0.315234,0.007544,0.011799
9.100000,9.608889,0.546534,0.318207,0.313125,0.004839,0.012121
9.110000,9.602192,0.571377,0.309325,0.311388,0.002138,0.012217
9.120000,9.614047,0.622464,0.301136,0.309335,0.002944,0.010476
9.130000,9.625902,0.673550,0.292948,0.307282,0.003750,0.008734
9.140000,9.637757,0.724637,0.284759,0.305229,0.004555,0.006993
9.150000,9.649508,0.774831,0.276443,0.303175,0.005361,0.005252
9.160000,9.645524,0.690246,0.248861,0.301122,0.006167,0.003510
9.170000,9.645203,0.614414,0.226267,0.298161,0.008755,0.001764
9.180000,9.710518,0.695444,0.293055,0.294548,0.008717,0.001165
9.190000,9.801151,0.843025,0.270065,0.291855,0.009148,0.001200
9.200000,9.647568,0.662724,0.198757,0.288750,0.011391,0.001917
9.210000,9.824886,0.734271,0.310462,0.287628,0.008748,0.002757
9.220000,9.713094,0.797286,0.229638,0.287524,0.015159,0.003688
9.230000,9.648302,0.697635,0.257402,0.286198,0.016485,0.002603
9.240000,9.842785,0.660464,0.415720,0.282524,0.010597,0.001213
9.250000,9.703129,0.674423,0.268682,0.281679,0.018047,-0.000579
9.260000,9.827302,0.771916,0.326708,0.279924,0.014349,-0.000655
9.270000,9.744922,0.643742,0.321997,0.277890,0.017280,-0.000878
9.280000,9.754834,0.612015,0.361907,0.275023,0.015597,-0.003283
9.290000,9.896633,0.812331,0.354669,0.273092,0.015252,-0.003691
9.300000,9.833484,0.860293,0.265788,0.271979,0.019192,-0.003262
9.310000,9.869976,0.775333,0.512212,0.270418,0.010252,-0.002498
9.320000,9.857825,0.874135,0.332272,0.267642,0.016785,-0.001874
9.330000,9.758291,0.901101,0.353275,0.266649,0.015949,-0.001244
9.340000,9.856877,0.914264,0.356935,0.265410,0.013504,0.000240
9.350000,9.854270,0.836753,0.226050,0.262033,0.014365,0.002093
9.360000,9.795386,0.842938,0.249571,0.258857,0.015404,0.002485
9.370000,9.814614,0.812246,0.313435,0.256297,0.013507,0.003480
9.380000,9.848632,0.762089,0.374518,0.253737,0.011611,0.004476
9.390000,9.883382,0.723907,0.392467,0.251521,0.012644,0.005678
9.400000,9.854763,0.722827,0.333131,0.250043,0.015454,0.006196
9.410000,9.750624,0.739979,0.273915,0.249005,0.015142,0.005262
9.420000,9.857017,0.698575,0.332586,0.245820,0.012016,0.005069
9.430000,9.756472,0.692338,0.286385,0.243482,0.014776,0.005561
9.440000,9.888859,0.731374,0.317020,0.238978,0.011213,0.006759
9.450000,9.796162,0.710188,0.238500,0.235270,0.012870,0.007574
9.460000,9.805839,0.652679,0.309856,0.233263,0.010334,0.008734
9.470000,9.962541,0.632348,0.294536,0.231501,0.008492,0.008888
9.480000,9.663733,0.576726,0.216714,0.227550,0.012732,0.008059
9.490000,9.872761,0.592626,0.336722,0.227404,0.007130,0.009928
9.500000,9.675959,0.567232,0.216381,0.222803,0.011605,0.010622
9.510000,9.687666,0.542399,0.210351,0.221172,0.010059,0.009935
9.520000,9.798126,0.504574,0.253481,0.219360,0.006053,0.008637
9.530000,9.607593,0.484003,0.187384,0.215015,0.005619,0.006899
9.540000,9.874220,0.551578,0.215413,0.211531,0.005806,0.005949
9.550000,9.868742,0.563969,0.179023,0.209516,0.007052,0.006344
9.560000,9.863264,0.576360,0.142633,0.207500,0.008299,0.006739
9.570000,9.857786,0.588750,0.106243,0.205485,0.009545,0.007133
9.580000,9.852308,0.601141,0.069853,0.203470,0.010792,0.007528
9.590000,9.849863,0.596743,0.074161,0.201455,0.012039,0.007923
9.600000,9.848662,0.585466,0.095144,0.199439,0.013285,0.008318
9.610000,9.847460,0.574189,0.116127,0.197431,0.014518,0.008696
9.620000,9.846258,0.562912,0.137110,0.195762,0.015031,0.008247
9.630000,9.845057,0.551634,0.158092,0.194093,0.015545,0.007798
9.640000,9.843855,0.540357,0.179075,0.192425,0.016058,0.007349
9.650000,9.854646,0.554808,0.162772,0.190756,0.016571,0.006899
9.660000,9.905178,0.654520,0.022905,0.188695,0.013349,0.006417
9.670000,9.789007,0.551995,-0.007224,0.186078,0.008478,0.005356
9.680000,9.655281,0.428175,-0.025797,0.183668,0.006914,0.004118
9.690000,9.853479,0.524594,0.089424,0.181920,0.009583,0.003251
9.700000,9.717915,0.531906,-0.009609,0.180549,0.015078,0.003158
9.710000,9.896085,0.488642,0.127264,0.177569,0.011309,0.003508
9.720000,9.798671,0.348475,0.079504,0.173719,0.010151,0.003467
9.730000,9.879696,0.419569,0.106601,0.169740,0.007707,0.003792
9.740000,10.002472,0.454665,0.088285,0.168159,0.004985,0.005689
9.750000,9.876435,0.389146,-0.009480,0.166841,0.009589,0.007224
9.760000,10.073881,0.360447,0.023810,0.162730,0.006450,0.008196
9.770000,10.040710,0.302986,-0.002227,0.158619,0.003311,0.009167
9.780000,9.912435,0.233664,-0.052731,0.154508,0.000171,0.010139
9.790000,9.784160,0.164342,-0.103234,0.149999,-0.006172,0.011111
9.800000,9.872543,0.134562,-0.044777,0.143263,-0.027256,0.011810
9.810000,10.018954,0.150895,0.008533,0.139901,-0.006123,0.011233
9.820000,10.002424,0.155891,-0.021101,0.135614,0.000606,0.010882
9.830000,9.904013,0.130225,-0.021185,0.130697,-0.002679,0.010696
9.840000,9.702865,0.173316,-0.117685,0.127638,0.004099,0.011191
9.850000,9.792866,0.178240,-0.078546,0.123755,-0.001734,0.009227
9.860000,9.687075,0.103061,-0.130541,0.119912,-0.002855,0.008747
9.870000,9.581284,0.027882,-0.182536,0.116069,-0.003976,0.008266
9.880000,9.875636,0.177531,-0.125069,0.113217,-0.002578,0.007330
9.890000,9.680438,0.114439,-0.153354,0.112439,0.004090,0.005441
9.900000,9.813612,0.119272,-0.052588,0.107308,-0.000651,0.001152
9.910000,9.896578,0.182119,-0.041371,0.105983,-0.000121,0.000401
9.920000,9.979543,0.244967,-0.030155,0.104659,0.000408,-0.000349
9.930000,9.822769,0.305472,-0.104008,0.103348,0.001431,-0.001157
9.940000,9.756815,0.416515,-0.121881,0.102504,0.011021,-0.002335
9.950000,9.765786,0.416842,-0.103218,0.102028,0.005024,-0.000027
9.960000,9.712411,0.393351,-0.107655,0.100934,0.004717,-0.000916
9.970000,9.659035,0.369861,-0.112092,0.099841,0.004409,-0.001804
9.980000,9.605660,0.346371,-0.116529,0.098747,0.004102,-0.002693
9.990000,9.821572,0.378904,0.034477,0.097657,0.003837,-0.003485
10.000000,9.969719,0.461928,0.069330,0.096596,0.004090,-0.003132
10.010000,10.014949,0.532047,0.034629,0.095536,0.004342,-0.002778
10.020000,9.970026,0.558160,-0.012274,0.094427,0.004658,-0.002379
10.030000,9.779048,0.512979,-0.078945,0.092428,0.006128,-0.001145
10.040000,9.588070,0.467799,-0.145616,0.090429,0.007598,0.000090
10.050000,9.808289,0.623746,-0.070211,0.088847,0.008768,0.000764
10.060000,9.935351,0.588872,-0.009292,0.086972,0.006110,0.001298
10.070000,9.739439,0.546396,-0.062547,0.084326,0.006613,0.002543
10.080000,9.562799,0.500689,-0.096717,0.081937,0.009144,0.003754
10.090000,9.636388,0.461566,-0.056663,0.079270,0.006620,0.005231
10.100000,9.709976,0.422443,-0.016609,0.076602,0.004095,0.006707
10.110000,9.984929,0.490071,-0.117021,0.073995,0.002048,0.007923
10.120000,9.590714,0.363182,-0.143212,0.071696,0.002428,0.007809
10.130000,9.518485,0.327315,-0.155206,0.069398,0.002808,0.007695
10.140000,9.539432,0.317789,-0.163093,0.067099,0.003188,0.007581
10.150000,9.560378,0.308262,-0.170979,0.064801,0.003567,0.007467
10.160000,9.581324,0.298735,-0.178866,0.062502,0.003947,0.007353
10.170000,9.602271,0.289208,-0.186752,0.060204,0.004327,0.007239
10.180000,9.623217,0.279681,-0.194638,0.057905,0.004707,0.007125
10.190000,9.644163,0.270155,-0.202525,0.055611,0.004750,0.007012
10.200000,9.665110,0.260628,-0.210411,0.053350,0.002436,0.006907
10.210000,9.686056,0.251101,-0.218298,0.051089,0.000122,0.006801
10.220000,9.799643,0.244022,-0.233120,0.049223,-0.001104,0.007191
10.230000,9.826685,0.215796,-0.280773,0.048468,0.001267,0.007909
10.240000,9.684454,0.173080,-0.336632,0.047506,0.003465,0.007589
10.250000,9.570645,0.132899,-0.376031,0.046545,0.005662,0.007268
10.260000,9.707122,0.115039,-0.270475,0.045219,0.007554,0.006454
10.270000,9.843600,0.097180,-0.164918,0.042748,0.008480,0.004086
10.280000,9.715415,0.130645,-0.331303,0.041203,0.008551,0.002604
10.290000,9.744026,0.170658,-0.328981,0.039955,0.008349,0.001406
10.300000,9.772636,0.210672,-0.326660,0.038706,0.008146,0.000208
10.310000,9.801246,0.250685,-0.324338,0.037457,0.007944,-0.000990
10.320000,9.829857,0.290699,-0.322017,0.036209,0.007741,-0.002188
10.330000,9.858467,0.330712,-0.319695,0.034960,0.007539,-0.003386
10.340000,9.887077,0.370726,-0.317373,0.033712,0.007336,-0.004584
10.350000,9.915688,0.410740,-0.315052,0.032463,0.007134,-0.005782
10.360000,9.944298,0.450753,-0.312730,0.031214,0.006932,-0.006980
10.370000,9.852302,0.448278,-0.227565,0.029711,0.007455,-0.006631
10.380000,10.181027,0.500159,-0.221522,0.028103,0.008280,-0.005641
10.390000,10.019938,0.458822,-0.281649,0.026495,0.009105,-0.004651
10.400000,9.858849,0.417485,-0.341775,0.024885,0.009917,-0.003669
10.410000,10.020475,0.362518,-0.235196,0.022729,0.007263,-0.004747
10.420000,10.063635,0.323903,-0.261535,0.020798,0.005150,-0.005940
10.430000,10.201564,0.358804,-0.210860,0.020034,0.005829,-0.007723
10.440000,10.201453,0.385377,-0.173360,0.019269,0.006509,-0.009507
10.450000,9.880669,0.392600,-0.166465,0.018505,0.007188,-0.011290
10.460000,10.063049,0.539146,-0.324937,0.015959,-0.001051,-0.011612
10.470000,9.639699,0.537502,-0.411870,0.014632,0.003540,-0.010490
10.480000,9.853909,0.574150,-0.277934,0.014071,-0.003201,-0.008027
10.490000,9.664290,0.591806,-0.381265,0.012876,0.002574,-0.006657
10.500000,9.756646,0.504455,-0.226125,0.012303,-0.003384,-0.006313
10.510000,9.820398,0.496554,-0.409427,0.010853,-0.001317,-0.002051
10.520000,9.868274,0.456753,-0.357513,0.010100,-0.003276,-0.000619
10.530000,9.556111,0.372566,-0.339355,0.011326,-0.001213,-0.001358
10.540000,9.989299,0.348120,-0.309349,0.010886,-0.004156,-0.002404
10.550000,9.521089,0.397397,-0.502913,0.010468,-0.000985,-0.003787
10.560000,9.795123,0.369508,-0.385110,0.010690,-0.003113,-0.004631
10.570000,9.823023,0.346775,-0.436210,0.010649,-0.006079,-0.006189
10.580000,9.727876,0.359402,-0.446831,0.010555,-0.004946,-0.009209
10.590000,9.773265,0.393209,-0.417598,0.007952,0.001011,-0.010348
10.600000,9.706317,0.481590,-0.390191,0.009353,0.003549,-0.008667
10.610000,9.814942,0.495168,-0.518884,0.009709,0.005788,-0.008116
10.620000,9.724297,0.562928,-0.407112,0.009010,0.006392,-0.006525
10.630000,9.957969,0.675459,-0.398324,0.008804,0.004395,-0.003653
10.640000,9.840750,0.662828,-0.438610,0.007832,0.008262,-0.002378
10.650000,9.819046,0.636571,-0.530173,0.007481,0.008568,0.000431
10.660000,9.730290,0.577808,-0.332872,0.008466,0.008154,0.003490
10.670000,9.740224,0.513235,-0.479023,0.005730,0.010165,0.003853
10.680000,9.606026,0.423067,-0.353521,0.004276,0.008883,0.004163
10.690000,9.792466,0.445300,-0.343435,0.004453,0.009201,0.003135
10.700000,9.762127,0.479391,-0.366362,0.004730,0.012648,0.001061
10.710000,9.724729,0.442664,-0.353147,0.004190,0.008773,-0.000111
10.720000,9.665174,0.438522,-0.442373,0.003625,0.005239,-0.001592
10.730000,9.426521,0.493621,-0.499968,0.003006,0.002455,-0.003758
10.740000,9.602571,0.553091,-0.469068,0.002809,0.008395,-0.005145
10.750000,9.719995,0.566468,-0.371339,0.002853,0.006917,-0.005596
10.760000,9.810052,0.552552,-0.535718,0.002130,0.009807,-0.004726
10.770000,9.972473,0.689016,-0.497894,0.002159,0.009501,-0.002395
10.780000,10.072495,0.761193,-0.474544,0.002363,0.007929,0.000167
10.790000,10.092213,0.750639,-0.469823,0.002567,0.006357,0.002728
10.800000,10.111931,0.740086,-0.465102,0.002771,0.004785,0.005290
10.810000,10.131649,0.729532,-0.460381,0.002974,0.003214,0.007851
10.820000,10.110357,0.701116,-0.492713,0.002174,0.005677,0.009848
10.830000,9.863120,0.565089,-0.609002,0.000725,0.010750,0.011478
10.840000,9.824244,0.528379,-0.456496,0.000905,0.011295,0.011345
10.850000,9.784022,0.509633,-0.460334,0.001225,0.011455,0.011061
10.860000,9.743800,0.490887,-0.464172,0.001544,0.011615,0.010777
10.870000,9.703578,0.472142,-0.468009,0.001864,0.011775,0.010493
10.880000,9.663355,0.453396,-0.471847,0.002183,0.011934,0.010209
10.890000,9.623133,0.434650,-0.475685,0.002503,0.012094,0.009925
10.900000,9.582911,0.415905,-0.479522,0.002822,0.012254,0.009641
10.910000,9.542689,0.397159,-0.483360,0.003142,0.012414,0.009357
10.920000,9.515898,0.361740,-0.415692,0.003135,0.012891,0.008762
10.930000,9.707531,0.344596,-0.357021,0.002428,0.014054,0.007498
10.940000,9.899163,0.327452,-0.298351,0.001720,0.015217,0.006235
10.950000,10.090796,0.310308,-0.239680,0.001034,0.015727,0.004954
10.960000,10.126577,0.332294,-0.218267,0.000399,0.014687,0.003635
10.970000,10.155211,0.356074,-0.198563,-0.000235,0.013646,0.002315
10.980000,10.183845,0.379855,-0.178859,-0.000869,0.012606,0.000996
10.990000,10.212478,0.403635,-0.159156,-0.001504,0.011566,-0.000324
11.000000,10.241112,0.427416,-0.139452,-0.002138,0.010525,-0.001643
11.010000,10.269746,0.451197,-0.119748,-0.002759,0.006957,-0.001892
11.020000,10.013369,0.433522,-0.272094,-0.002344,0.006944,-0.001605
11.030000,9.992159,0.455918,-0.327035,-0.002479,0.005326,-0.001054
11.040000,10.112448,0.501555,-0.316759,-0.002674,0.003244,-0.000403
11.050000,9.822687,0.443662,-0.389323,-0.002393,0.005828,-0.000776
11.060000,10.080244,0.564867,-0.319061,-0.003300,-0.000121,-0.000408
11.070000,9.765933,0.593348,-0.509784,-0.002120,-0.002840,0.002301
11.080000,9.972181,0.627828,-0.241483,-0.001599,-0.002106,0.004678
11.090000,10.006505,0.758997,-0.367510,-0.002807,-0.000295,0.006288
11.100000,10.075514,0.700000,-0.342124,-0.003922,-0.003112,0.008659
11.110000,9.740949,0.641948,-0.422420,-0.004065,0.000505,0.010137
11.120000,9.888184,0.657537,-0.367492,-0.002890,-0.002152,0.010941
11.130000,9.734935,0.638533,-0.511845,-0.002895,0.000537,0.011502
11.140000,9.674058,0.503188,-0.431183,-0.004096,0.001007,0.010421
11.150000,9.844536,0.585193,-0.438104,-0.004040,0.000832,0.010225
11.160000,9.615657,0.570480,-0.519494,-0.004796,0.005225,0.008798
11.170000,9.481642,0.523834,-0.582919,-0.005576,0.007118,0.007595
11.180000,9.541474,0.517129,-0.634240,-0.005445,0.005940,0.007791
11.190000,9.661849,0.528751,-0.592877,-0.005312,0.005466,0.008040
11.200000,9.650279,0.520504,-0.520072,-0.005031,0.007307,0.008138
11.210000,9.555943,0.385139,-0.556317,-0.004077,0.008279,0.006290
11.220000,9.750714,0.373791,-0.507663,-0.005022,0.004354,0.004627
11.230000,9.614057,0.318170,-0.584678,-0.005183,0.010478,0.002462
11.240000,9.781080,0.247363,-0.446791,-0.004546,0.007836,0.000731
11.250000,9.832553,0.312336,-0.483334,-0.004486,0.005670,-0.000385
11.260000,9.890084,0.372253,-0.367740,-0.004849,0.003853,-0.001051
11.270000,9.771919,0.348287,-0.378329,-0.005078,0.003693,-0.001748
11.280000,9.778164,0.312296,-0.350876,-0.004818,0.006586,-0.002235
11.290000,9.846572,0.479638,-0.392594,-0.004549,0.006247,0.000063
11.300000,9.668363,0.462282,-0.428604,-0.004654,0.009580,0.001879
11.310000,10.019637,0.502003,-0.275672,-0.002872,0.005830,0.003723
11.320000,9.632284,0.460630,-0.449985,-0.002891,0.011156,0.004795
11.330000,9.789382,0.492430,-0.433120,-0.003745,0.010371,0.006497
11.340000,9.872419,0.484289,-0.500323,-0.004566,0.008750,0.008582
11.350000,9.714993,0.439477,-0.395371,-0.006053,0.009150,0.009351
11.360000,9.891595,0.513454,-0.355048,-0.005654,0.006030,0.010381
11.370000,9.766928,0.463112,-0.531299,-0.007121,0.012164,0.009383
11.380000,9.919801,0.436493,-0.434081,-0.010562,0.002982,0.008833
11.390000,9.986845,0.470544,-0.372747,-0.010656,0.001526,0.008739
11.400000,10.053889,0.504595,-0.311414,-0.010750,0.000071,0.008645
11.410000,9.986654,0.464235,-0.360220,-0.010852,-0.001377,0.008532
11.420000,9.795794,0.355369,-0.510428,-0.012060,-0.001722,0.005770
11.430000,10.043710,0.388585,-0.340105,-0.012668,-0.000657,0.003275
11.440000,10.023529,0.495363,-0.383695,-0.012482,-0.001462,0.001837
11.450000,10.085207,0.404661,-0.315421,-0.012627,-0.004143,0.000460
11.460000,9.916573,0.364224,-0.501013,-0.011779,0.000241,-0.001196
11.470000,9.935698,0.356294,-0.509099,-0.012056,0.001196,-0.003226
11.480000,9.945382,0.359929,-0.478491,-0.013225,-0.001683,-0.005385
11.490000,9.898172,0.370458,-0.477681,-0.012954,-0.002890,-0.004652
11.500000,9.850962,0.380988,-0.476871,-0.012604,-0.004005,-0.003760
11.510000,9.803753,0.391518,-0.476061,-0.012253,-0.005120,-0.002868
11.520000,9.756543,0.402047,-0.475251,-0.011903,-0.006235,-0.001975
11.530000,9.701881,0.435598,-0.502246,-0.011264,-0.007465,-0.000728
11.540000,9.662372,0.485234,-0.542484,-0.009056,-0.009320,0.002452
11.550000,9.785935,0.459090,-0.449111,-0.008343,-0.007513,0.003722
11.560000,9.773047,0.373666,-0.486264,-0.009305,-0.003722,0.002800
11.570000,9.707780,0.422437,-0.481268,-0.009140,-0.005790,0.003642
11.580000,9.762255,0.497665,-0.539959,-0.009586,-0.000215,0.004088
11.590000,9.508190,0.396049,-0.739894,-0.010153,0.001675,0.004697
11.600000,9.565991,0.448329,-0.697680,-0.010808,0.000874,0.005425
11.610000,9.705324,0.492181,-0.581084,-0.011463,-0.001063,0.006013
11.620000,9.871568,0.506089,-0.537902,-0.012207,-0.003520,0.006454
11.630000,9.931668,0.463894,-0.701681,-0.013996,0.002145,0.006951
11.640000,9.719004,0.395681,-0.719236,-0.015324,0.004502,0.006033
11.650000,9.794220,0.363641,-0.657385,-0.016264,0.004075,0.003925
11.660000,9.869435,0.331602,-0.595533,-0.017204,0.003648,0.001817
11.670000,9.944650,0.299563,-0.533682,-0.018144,0.003220,-0.000291
11.680000,9.965839,0.355523,-0.464455,-0.019084,0.002793,-0.002399
11.690000,9.982296,0.419191,-0.394582,-0.020093,0.003748,-0.003849
11.700000,9.766319,0.491356,-0.520764,-0.020962,0.009554,-0.002307
11.710000,9.787478,0.504059,-0.529171,-0.021068,0.013060,-0.000714
11.720000,9.864800,0.501545,-0.446836,-0.019548,0.007148,0.000788
11.730000,9.727642,0.452996,-0.502017,-0.019548,0.008921,0.001327
11.740000,9.702932,0.441539,-0.530906,-0.019445,0.009977,0.002707
11.750000,9.674541,0.461011,-0.599687,-0.019560,0.013529,0.004861
11.760000,9.556513,0.398007,-0.539008,-0.019320,0.014739,0.005108
11.770000,9.676480,0.457120,-0.550179,-0.019161,0.012433,0.005738
11.780000,9.609411,0.508146,-0.500219,-0.018992,0.013541,0.007055
11.790000,9.730728,0.573630,-0.314211,-0.017332,0.009961,0.008103
11.800000,9.567964,0.505863,-0.608765,-0.017868,0.022525,0.008653
11.810000,9.635228,0.448530,-0.444893,-0.017868,0.015322,0.009713
11.820000,9.941636,0.429420,-0.399960,-0.016608,0.012124,0.009424
11.830000,9.842574,0.297469,-0.498626,-0.016003,0.010655,0.006313
11.840000,9.945521,0.290312,-0.414676,-0.015649,0.010631,0.003474
11.850000,9.999656,0.368193,-0.429170,-0.015921,0.013741,0.001219
11.860000,9.911110,0.335585,-0.270457,-0.016740,0.009729,-0.002276
11.870000,9.968495,0.421811,-0.305544,-0.016188,0.010626,-0.003042
11.880000,10.116019,0.476535,-0.322051,-0.015997,0.009019,-0.003722
11.890000,10.167160,0.556725,-0.234247,-0.016405,0.005923,-0.003456
11.900000,10.027336,0.480707,-0.460489,-0.017113,0.008596,-0.002659
11.910000,10.133751,0.491801,-0.204081,-0.016859,0.001954,-0.001548
11.920000,10.080863,0.522927,-0.346658,-0.015553,0.002826,-0.000340
11.930000,9.947063,0.443437,-0.434903,-0.015168,0.003759,0.000187
11.940000,9.916856,0.324664,-0.096347,-0.016021,-0.003507,0.000000
11.950000,9.835904,0.191971,-0.465304,-0.017675,0.000939,-0.001352
11.960000,9.876368,0.260205,-0.360970,-0.016327,-0.002378,-0.001219
11.970000,9.736876,0.373799,-0.455146,-0.016225,-0.001253,-0.001717
11.980000,9.657590,0.458641,-0.492521,-0.017316,0.000169,-0.002172
11.990000,9.749309,0.480145,-0.379148,-0.017586,-0.005922,-0.000365
12.000000,9.603532,0.571334,-0.556163,-0.016749,-0.001735,0.001729
12.010000,9.658150,0.607898,-0.455924,-0.016140,0.000699,0.003953
12.020000,9.692122,0.598648,-0.376031,-0.016787,-0.006137,0.006837
12.030000,9.596229,0.593095,-0.574142,-0.016622,-0.002262,0.008487
12.040000,9.716179,0.556089,-0.560432,-0.016614,0.002406,0.009798
12.050000,9.626197,0.408365,-0.247180,-0.017164,0.009891,0.009908
12.060000,9.699656,0.256927,-0.419399,-0.018017,0.001904,0.007647
12.070000,9.639101,0.401726,-0.299603,-0.017542,0.004206,0.005075
12.080000,9.769613,0.310233,-0.590896,-0.018054,0.009298,0.001288
12.090000,9.926726,0.350452,-0.277175,-0.018479,0.003665,-0.003360
12.100000,9.871878,0.380369,-0.294563,-0.017827,0.004903,-0.003620
12.110000,9.817031,0.410286,-0.311950,-0.017176,0.006141,-0.003881
12.120000,9.762184,0.440202,-0.329338,-0.016524,0.007379,-0.004142
12.130000,9.707336,0.470119,-0.346725,-0.015873,0.008617,-0.004402
12.140000,9.633574,0.520092,-0.275302,-0.014682,0.009932,-0.004396
12.150000,9.606978,0.601461,-0.263365,-0.012981,0.012264,-0.003632
12.160000,9.759341,0.629466,-0.354590,-0.012941,0.013604,-0.001702
12.170000,9.889710,0.604359,-0.182566,-0.012800,0.008863,0.002275
12.180000,9.821987,0.645891,-0.186682,-0.012701,0.011540,0.005944
12.190000,9.837671,0.674278,-0.391484,-0.011289,0.009722,0.009182
12.200000,9.915029,0.615942,-0.258373,-0.011050,0.010422,0.011156
12.210000,10.083975,0.337040,-0.324189,-0.011126,0.012811,0.011524
12.220000,10.047171,0.167771,-0.119100,-0.010798,0.009740,0.009402
12.230000,10.017178,0.139380,-0.041506,-0.011301,0.008247,0.005971
12.240000,10.013416,0.130165,-0.022135,-0.011665,0.009703,0.001640
12.250000,10.009655,0.120950,-0.002764,-0.012029,0.011158,-0.002691
12.260000,9.970461,0.149819,-0.074875,-0.012393,0.012614,-0.007022
12.270000,9.908617,0.203033,-0.205467,-0.012410,0.012124,-0.012034
12.280000,9.844398,0.438476,-0.245653,-0.011363,0.005287,-0.018816
12.290000,9.803447,0.520794,-0.247458,-0.012325,0.004378,-0.016945
12.300000,9.762599,0.601832,-0.249435,-0.013287,0.003469,-0.015074
12.310000,9.720980,0.651689,-0.322010,-0.014177,0.002749,-0.012529
12.320000,9.732889,0.615304,-0.339246,-0.014236,0.002987,-0.008820
12.330000,9.791515,0.577449,-0.149300,-0.013646,0.003503,-0.006756
12.340000,9.760997,0.434234,-0.363422,-0.013361,0.001390,-0.003705
12.350000,9.858383,0.446007,-0.266741,-0.013552,-0.004822,0.000882
12.360000,9.924893,0.524947,-0.189287,-0.013827,0.003650,0.003126
12.370000,9.888087,0.547682,-0.276947,-0.014454,0.006796,0.005642
12.380000,9.914317,0.584921,-0.191619,-0.015184,0.007097,0.008432
12.390000,9.940547,0.622161,-0.106291,-0.015914,0.007397,0.011223
12.400000,9.960908,0.663537,-0.045167,-0.015612,-0.003326,0.016727
12.410000,9.943096,0.731817,-0.141484,-0.016082,0.001302,0.017825
12.420000,9.912275,0.682771,-0.176357,-0.016801,0.004761,0.018569
12.430000,9.832822,0.432485,-0.190471,-0.019232,0.000141,0.016867
12.440000,9.765682,0.349630,-0.367083,-0.018261,0.008689,0.015496
12.450000,9.838005,0.367947,-0.257798,-0.018168,0.005689,0.011863
12.460000,9.832601,0.315525,-0.154613,-0.019310,0.007145,0.006198
12.470000,9.752227,0.280029,-0.278262,-0.018833,0.012476,0.001705
12.480000,9.757696,0.377692,-0.270058,-0.018038,0.009496,-0.000579
12.490000,9.665415,0.590168,-0.061606,-0.016956,0.006196,-0.001974
12.500000,9.659849,0.490355,-0.165501,-0.016367,0.004724,-0.000109
12.510000,9.551969,0.536809,-0.188938,-0.015506,0.010182,0.000572
12.520000,9.664049,0.497478,-0.447173,-0.013554,0.013622,0.001547
12.530000,9.777692,0.498453,0.048840,-0.011665,0.011850,0.002790
12.540000,9.625773,0.478550,-0.236868,-0.011353,0.012830,0.005358
12.550000,9.650594,0.334374,-0.332149,-0.010606,0.011687,0.006827
12.560000,9.646583,0.307297,0.038903,-0.009760,0.008191,0.008719
12.570000,9.756317,0.211819,-0.041348,-0.009158,0.005942,0.007884
12.580000,10.028489,0.188094,-0.085701,-0.008809,0.005462,0.004097
12.590000,10.172467,0.296424,-0.046106,-0.008415,0.009018,0.002290
12.600000,10.123001,0.156966,-0.120797,-0.008744,0.008641,-0.003478
12.610000,10.211000,0.213133,0.119872,-0.009342,0.000747,-0.005272
12.620000,10.123749,0.275049,-0.065009,-0.009870,0.004686,-0.008846
12.630000,10.052534,0.256880,-0.057393,-0.010948,0.000719,-0.012596
12.640000,9.988461,0.310395,0.028436,-0.011029,-0.003873,-0.013999
12.650000,9.910948,0.337900,-0.029756,-0.012210,-0.005842,-0.014612
12.660000,9.833434,0.365404,-0.087948,-0.013392,-0.007812,-0.015225
12.670000,9.869903,0.452149,-0.105267,-0.014573,-0.009781,-0.015837
12.680000,9.922524,0.547311,-0.116781,-0.015116,-0.006101,-0.012421
12.690000,9.853738,0.610882,-0.135308,-0.015424,-0.004242,-0.009293
12.700000,9.655079,0.583538,0.073953,-0.013546,-0.000613,-0.006438
12.710000,9.688291,0.382981,-0.280330,-0.013630,0.000260,-0.005791
12.720000,9.659555,0.405701,-0.242164,-0.014169,0.000044,-0.005446
12.730000,9.630818,0.428421,-0.203998,-0.014707,-0.000171,-0.005101
12.740000,9.602081,0.451141,-0.165832,-0.015246,-0.000387,-0.004757
12.750000,9.573345,0.473861,-0.127667,-0.015785,-0.000602,-0.004412
12.760000,9.544608,0.496581,-0.089501,-0.016323,-0.000818,-0.004067
12.770000,9.508853,0.481769,-0.061239,-0.016862,-0.001033,-0.003723
12.780000,9.523544,0.340719,-0.125030,-0.014689,0.002325,-0.001968
12.790000,9.653633,0.333757,-0.245977,-0.014813,0.003081,-0.003920
12.800000,9.677502,0.406605,-0.278298,-0.014813,0.005173,-0.005758
12.810000,9.698543,0.477564,-0.306149,-0.014813,0.007265,-0.007597
12.820000,9.560281,0.609423,-0.114089,-0.014859,0.001894,-0.008384
12.830000,9.481982,0.624603,-0.210333,-0.015259,0.004127,-0.008618
12.840000,9.466778,0.621499,-0.279653,-0.015477,0.007458,-0.008585
12.850000,9.604196,0.663550,-0.111449,-0.014152,0.010529,-0.006357
12.860000,9.672694,0.691674,-0.050448,-0.012828,0.013600,-0.004130
12.870000,9.711468,0.714154,-0.034260,-0.012029,0.012220,-0.001203
12.880000,9.804764,0.751199,0.080646,-0.011509,0.008490,0.002093
12.890000,9.837633,0.755060,0.004237,-0.012848,0.017220,0.006226
12.900000,9.793648,0.714146,-0.090870,-0.012974,0.011185,0.009873
12.910000,9.854069,0.643443,0.052753,-0.013159,0.010807,0.009615
12.920000,9.923490,0.551227,0.044118,-0.013348,0.010769,0.009124
12.930000,9.992911,0.459011,0.035484,-0.013538,0.010732,0.008632
12.940000,10.057697,0.358846,0.005056,-0.013727,0.010694,0.008140
12.950000,10.038389,0.323941,0.006651,-0.013274,0.010337,0.007564
12.960000,9.979703,0.335044,0.054763,-0.012755,0.009948,0.006980
12.970000,9.921018,0.346147,0.102874,-0.012235,0.009558,0.006396
12.980000,9.862332,0.357249,0.150986,-0.011716,0.009169,0.005812
12.990000,9.810063,0.380438,0.145796,-0.014789,0.000466,-0.004147
13.000000,9.825464,0.467960,0.000260,-0.014267,0.003946,-0.004669
13.010000,9.864555,0.525046,0.159419,-0.013988,0.004194,-0.004541
13.020000,9.837865,0.528875,0.164947,-0.014139,-0.001164,-0.002569
13.030000,9.783311,0.520200,0.069878,-0.013936,-0.001470,-0.000022
13.040000,9.830078,0.611432,0.109523,-0.014050,-0.002746,0.003049
13.050000,9.760831,0.530003,0.047970,-0.012261,-0.000602,0.006632
13.060000,9.760557,0.489813,0.013353,-0.011411,0.001401,0.009336
13.070000,9.855427,0.523086,-0.017230,-0.012824,0.003049,0.009925
13.080000,9.865843,0.643610,-0.355986,-0.013159,0.007905,0.010808
13.090000,9.997874,0.484726,0.103824,-0.012325,0.002710,0.011590
13.100000,10.097948,0.345605,0.119563,-0.011769,0.008158,0.013170
13.110000,9.874906,0.287627,0.017004,-0.011979,0.008655,0.007794
13.120000,9.843422,0.253276,0.088192,-0.012142,0.006026,0.003955
13.130000,9.849177,0.201451,0.037817,-0.012483,0.008836,0.000549
13.140000,9.833250,0.165358,-0.002401,-0.012406,0.007999,-0.001943
13.150000,9.817324,0.129265,-0.042620,-0.012275,0.006682,-0.004314
13.160000,9.801397,0.093172,-0.082838,-0.012143,0.005364,-0.006685
13.170000,9.785470,0.057078,-0.123056,-0.012011,0.004047,-0.009056
13.180000,9.770138,0.134188,-0.119776,-0.011546,0.003353,-0.010816
13.190000,9.755710,0.382992,-0.050521,-0.010062,0.004562,-0.010706
13.200000,9.771130,0.513686,-0.006659,-0.008578,0.005771,-0.010596
13.210000,9.813033,0.539589,0.014673,-0.008246,0.008885,-0.008616
13.220000,9.608669,0.624589,0.072176,-0.008026,0.011016,-0.005513
13.230000,9.459749,0.675674,0.098396,-0.007260,0.011712,-0.002868
13.240000,9.525975,0.608175,0.017842,-0.007663,0.011757,-0.000912
13.250000,9.763992,0.403577,0.144911,-0.009265,0.011134,0.000334
13.260000,9.867006,0.338407,0.187309,-0.005880,0.009737,-0.001486
13.270000,9.698925,0.508785,-0.050367,-0.006303,0.013877,-0.003937
13.280000,9.685353,0.466349,0.212197,-0.007603,0.008382,-0.005953
13.290000,9.931267,0.335282,0.078696,-0.007820,0.009184,-0.007451
13.300000,9.795918,0.374616,-0.036620,-0.009056,0.006778,-0.010017
13.310000,9.582251,0.452002,0.260280,-0.011120,-0.000368,-0.013052
13.320000,9.671382,0.393711,0.080346,-0.010660,0.001089,-0.014203
13.330000,9.778220,0.429140,0.134366,-0.010261,0.002180,-0.015308
13.340000,9.860219,0.534089,0.315825,-0.010673,-0.001525,-0.015823
13.350000,9.919829,0.594101,0.029860,-0.011476,0.006806,-0.015171
13.360000,9.665222,0.617128,0.080731,-0.011789,0.005941,-0.010610
13.370000,9.796255,0.630887,0.193201,-0.011901,0.005885,-0.005830
13.380000,9.927288,0.644645,0.305671,-0.012012,0.005830,-0.001049
13.390000,9.839110,0.889833,0.113813,-0.012313,0.002325,0.004017
13.400000,9.959224,0.929759,0.223586,-0.012286,0.000588,0.010541
13.410000,10.046115,0.808190,0.153327,-0.011415,0.003546,0.017299
13.420000,10.060810,0.663215,0.141609,-0.011920,0.002410,0.019197
13.430000,10.141061,0.535710,0.045783,-0.012877,0.003303,0.019835
13.440000,9.888882,0.311346,0.149145,-0.013230,0.000626,0.018684
13.450000,9.861172,0.221865,0.384435,-0.013933,-0.006167,0.013483
13.460000,9.963617,0.238951,-0.033004,-0.014894,-0.001514,0.006509
13.470000,9.914556,0.343866,-0.071196,-0.014642,-0.001781,0.004046
13.480000,9.865495,0.448782,-0.109389,-0.014292,-0.002553,0.001977
13.490000,9.816433,0.553698,-0.147581,-0.013941,-0.003324,-0.000092
13.500000,9.753895,0.631590,-0.160889,-0.013590,-0.004096,-0.002161
13.510000,9.515101,0.469692,0.181385,-0.013070,-0.002706,-0.002777
13.520000,9.419102,0.537043,0.193519,-0.012420,0.000325,-0.002290
13.530000,9.345921,0.593556,0.131537,-0.011771,0.003357,-0.001803
13.540000,9.383766,0.617994,-0.020562,-0.011295,0.003450,0.004431
13.550000,9.555989,0.603611,-0.281736,-0.009976,0.006417,0.008322
13.560000,9.628508,0.550500,-0.193366,-0.008657,0.009385,0.012213
13.570000,9.686202,0.491632,-0.053021,-0.008472,0.010578,0.011367
13.580000,9.743897,0.432763,0.087325,-0.008386,0.011617,0.010111
13.590000,9.801591,0.373894,0.227670,-0.008299,0.012657,0.008854
13.600000,9.814721,0.332710,-0.013350,-0.007482,0.016473,0.006437
13.610000,9.568423,0.090774,0.108017,-0.007904,0.015504,-0.001024
13.620000,9.756066,-0.004999,0.213149,-0.009013,0.012377,-0.007812
13.630000,9.675891,0.150915,0.186529,-0.009412,0.013576,-0.011728
13.640000,9.634176,0.291323,0.206560,-0.009791,0.014358,-0.015393
13.650000,9.769633,0.360300,0.441483,-0.009973,0.011170,-0.016668
13.660000,9.744376,0.375056,0.347868,-0.011352,0.009218,-0.017557
13.670000,9.745942,0.399786,0.288674,-0.013944,0.008811,-0.017529
13.680000,9.800783,0.444130,0.302170,-0.013010,0.007061,-0.014554
13.690000,9.855624,0.488474,0.315667,-0.012077,0.005311,-0.011579
13.700000,10.011968,0.561526,0.329507,-0.011652,0.003970,-0.008473
13.710000,10.246322,0.656642,0.343611,-0.011745,0.003044,-0.005233
13.720000,10.083277,0.853448,0.236642,-0.012651,0.004364,0.002131
13.730000,9.935377,0.867014,0.360387,-0.013371,0.000208,0.006926
13.740000,10.053467,0.626028,0.102836,-0.012773,0.002942,0.010609
13.750000,9.995483,0.531248,0.123478,-0.013013,0.003239,0.012069
13.760000,9.977325,0.443203,0.330401,-0.015382,-0.004693,0.010936
13.770000,9.927662,0.412446,0.004965,-0.014832,-0.001407,0.008608
13.780000,9.964633,0.506471,0.061106,-0.014832,-0.001478,0.006582
13.790000,10.001604,0.600496,0.117248,-0.015372,-0.004446,0.004828
13.800000,9.649371,0.651656,-0.159003,-0.015435,0.000747,0.002907
13.810000,9.520749,0.662442,0.134067,-0.015717,-0.007750,0.003084
13.820000,9.784271,0.767187,0.107052,-0.015320,-0.006560,0.003976
13.830000,9.732102,0.728577,-0.134090,-0.014523,-0.001022,0.004088
13.840000,9.812676,0.776681,-0.093261,-0.013586,0.002844,0.006370
13.850000,9.915987,0.847646,0.015906,-0.012828,0.002785,0.010559
13.860000,9.730406,0.774203,-0.082233,-0.012828,0.008279,0.013825
13.870000,9.882685,0.550358,0.127829,-0.012891,0.005261,0.019502
13.880000,10.082245,0.355777,-0.026013,-0.012532,0.009675,0.019709
13.890000,9.954947,0.391323,0.289811,-0.012370,0.006883,0.019054
13.900000,10.081466,0.420356,0.160564,-0.011413,0.008475,0.016751
13.910000,10.058049,0.350688,0.132068,-0.010552,0.008350,0.014100
13.920000,9.998626,0.313846,0.257849,-0.010031,0.006671,0.011755
13.930000,10.002205,0.312263,0.236754,-0.010789,0.003008,0.010618
13.940000,9.858510,0.265435,0.073005,-0.009863,0.006486,0.004000
13.950000,9.694140,0.208904,0.328060,-0.007850,-0.003054,0.001408
13.960000,9.741199,0.345028,0.191153,-0.009993,-0.002254,-0.002288
13.970000,9.711142,0.362030,0.385346,-0.012712,-0.006637,-0.004110
13.980000,9.780240,0.367817,0.505480,-0.012259,-0.011904,-0.001593
13.990000,9.661751,0.423978,0.177604,-0.011728,-0.010397,-0.000441
14.000000,9.642720,0.503869,0.117035,-0.011738,-0.008404,0.001126
14.010000,9.706295,0.541428,0.164154,-0.012323,-0.005896,0.003133
14.020000,9.753749,0.406081,-0.051067,-0.012582,-0.006169,0.003996
14.030000,9.671906,0.345579,0.113391,-0.012672,-0.007884,0.004267
14.040000,9.650813,0.410134,0.089141,-0.011645,-0.009125,0.002998
14.050000,9.639352,0.411214,-0.105193,-0.011259,-0.007968,0.002033
14.060000,9.630458,0.081538,0.296201,-0.011611,-0.010253,-0.001209
14.070000,9.599436,0.034759,-0.047626,-0.012230,-0.010256,-0.005329
14.080000,9.506622,0.127718,-0.005634,-0.012740,-0.009455,-0.009116
14.090000,9.522606,0.330837,0.124826,-0.013028,-0.006620,-0.011272
14.100000,9.757179,0.419109,-0.160356,-0.012523,-0.000144,-0.013277
14.110000,9.623939,0.468333,0.022110,-0.012523,-0.000060,-0.013193
14.120000,9.517526,0.616102,-0.002570,-0.012356,-0.000083,-0.013000
14.130000,9.678394,0.503710,0.072478,-0.011783,-0.000370,-0.012542
14.140000,9.857528,0.518268,0.117754,-0.011210,-0.000656,-0.012083
14.150000,9.942711,0.574520,0.102990,-0.009959,0.005321,-0.008697
14.160000,9.913820,0.519394,0.065042,-0.010380,0.007694,-0.005558
14.170000,9.884930,0.464269,0.027095,-0.010801,0.010068,-0.002420
14.180000,9.856040,0.409144,-0.010853,-0.011222,0.012441,0.000719
14.190000,9.959058,0.513645,0.206778,-0.011297,0.009511,0.002757
14.200000,10.119839,0.607062,0.162728,-0.011975,0.007979,0.003505
14.210000,10.115011,0.385953,0.149395,-0.013399,0.009281,0.001573
14.220000,10.016240,0.321766,0.357416,-0.012895,0.007813,-0.000455
14.230000,10.034919,0.353524,0.247631,-0.012627,0.006841,-0.002917
14.240000,10.082076,0.446481,0.054522,-0.013361,0.006317,-0.007322
14.250000,10.056093,0.508044,0.080438,-0.013965,0.004815,-0.007427
14.260000,10.019361,0.521315,0.170964,-0.014553,0.003198,-0.007023
14.270000,9.982630,0.534585,0.261489,-0.015141,0.001580,-0.006618
14.280000,9.952555,0.606070,0.269632,-0.015729,-0.000037,-0.006214
14.290000,9.924505,0.695273,0.252701,-0.015882,-0.003111,-0.001688
14.300000,9.932995,0.770412,0.241936,-0.016091,-0.005308,0.004298
14.310000,9.996933,0.824210,0.240528,-0.016714,-0.004742,0.010301
14.320000,9.928148,0.832722,0.237661,-0.017337,-0.004176,0.016304
14.330000,9.724304,0.735441,0.215627,-0.017562,-0.001326,0.019397
14.340000,9.763068,0.655443,0.176862,-0.017562,0.002822,0.020837
14.350000,9.782019,0.499722,0.053259,-0.017562,0.006969,0.022277
14.360000,9.682442,0.241301,0.186220,-0.018173,0.003361,0.018453
14.370000,9.585637,0.228624,-0.095550,-0.018173,0.006571,0.015165
14.380000,9.431692,0.177769,0.194663,-0.018318,0.001797,0.008052
14.390000,9.479015,0.311666,-0.006931,-0.017161,0.008752,0.004423
14.400000,9.431185,0.432649,-0.182778,-0.016952,0.007030,0.001551
14.410000,9.535930,0.488792,0.089884,-0.016881,0.005221,-0.000798
14.420000,9.578905,0.401975,0.068419,-0.016551,0.010397,-0.001679
14.430000,9.510560,0.366898,0.059161,-0.016011,0.012024,-0.002796
14.440000,9.590140,0.591900,0.317322,-0.012932,0.009582,-0.001790
14.450000,9.564916,0.568768,-0.022005,-0.012511,0.012844,-0.001297
14.460000,9.460822,0.408496,-0.107732,-0.013038,0.016951,-0.001374
14.470000,9.340181,0.222234,-0.100854,-0.011831,0.015572,-0.001374
14.480000,9.911431,0.216025,0.092219,-0.011748,0.012133,-0.002344
14.490000,9.977700,0.283565,0.293848,-0.012141,0.009623,-0.004815
14.500000,9.808924,0.190123,0.014472,-0.011414,0.014418,-0.008864
14.510000,9.770043,0.272256,0.195525,-0.011271,0.008574,-0.010909
14.520000,10.020823,0.341764,0.453922,-0.011301,0.005779,-0.012224
14.530000,10.029404,0.203582,0.067350,-0.012467,0.011588,-0.014597
14.540000,9.989956,0.261248,0.244845,-0.011719,0.003823,-0.017681
14.550000,9.894635,0.351444,0.319667,-0.011854,0.003522,-0.019108
14.560000,9.935784,0.258554,0.083687,-0.013301,0.006357,-0.019314
14.570000,9.907047,0.235249,0.244545,-0.013783,0.001891,-0.019948
14.580000,9.881042,0.348194,0.210529,-0.015284,0.003598,-0.019566
14.590000,9.844285,0.509327,-0.024545,-0.015363,0.000198,-0.018696
14.600000,9.878722,0.641545,0.056724,-0.015406,-0.001587,-0.016985
14.610000,9.926335,0.754611,0.187176,-0.015326,0.002256,-0.012342
14.620000,9.942869,0.727943,0.076237,-0.015776,0.004005,-0.007462
14.630000,9.711135,0.743228,0.178163,-0.016926,0.005635,-0.003597
14.640000,9.601867,0.626792,0.009571,-0.017270,0.008486,-0.001429
14.650000,9.646807,0.490956,0.181381,-0.017477,0.005007,0.000803
14.660000,9.757462,0.462084,0.173899,-0.018347,0.005423,0.002262
14.670000,9.642735,0.454143,0.049198,-0.018148,0.012425,0.001429
14.680000,9.517561,0.471031,0.038277,-0.019001,0.011769,0.000773
14.690000,9.498520,0.520103,0.115058,-0.019854,0.011112,0.000117
14.700000,9.479479,0.569174,0.191839,-0.019492,0.014218,-0.000420
14.710000,9.460439,0.618246,0.268620,-0.018867,0.018137,-0.000931
14.720000,9.534271,0.654545,0.174418,-0.018188,0.020758,-0.001271
14.730000,9.767365,0.790562,0.220530,-0.017154,0.014939,-0.000495
14.740000,9.689062,0.829564,0.296238,-0.017329,0.019306,0.003690
14.750000,9.732964,0.702468,0.100277,-0.017626,0.018318,0.005666
14.760000,9.633361,0.536491,0.230575,-0.017865,0.017238,0.009454
14.770000,9.720400,0.527196,0.345923,-0.017645,0.015964,0.008488
14.780000,9.807439,0.517900,0.461270,-0.017425,0.014690,0.007521
14.790000,9.887994,0.495497,0.500692,-0.017206,0.013416,0.006555
14.800000,9.956938,0.449621,0.404144,-0.016986,0.012143,0.005589
14.810000,10.025882,0.403744,0.307596,-0.016766,0.010869,0.004622
14.820000,10.094826,0.357868,0.211049,-0.016547,0.009595,0.003656
14.830000,10.163771,0.311991,0.114501,-0.016295,0.008279,0.002588
14.840000,10.127576,0.255993,0.102050,-0.015556,0.006308,-0.000040
14.850000,10.054073,0.196403,0.119440,-0.014966,0.004931,-0.002400
14.860000,9.983570,0.180687,0.188590,-0.014966,0.005904,-0.003698
14.870000,9.929320,0.402710,0.538201,-0.015142,0.004804,-0.004370
14.880000,9.980915,0.533386,0.463920,-0.015694,-0.000708,-0.003708
14.890000,9.937613,0.589056,0.407328,-0.015963,0.000447,-0.000866
14.900000,9.785846,0.566207,0.387606,-0.016400,0.001928,0.002834
14.910000,9.634080,0.543358,0.367884,-0.016912,0.003352,0.006819
14.920000,9.480627,0.470028,0.286795,-0.017404,0.004738,0.010608
14.930000,9.327153,0.396055,0.204925,-0.017206,0.004870,0.007769
14.940000,9.368165,0.208207,0.110219,-0.017008,0.005002,0.004931
14.950000,9.487487,-0.025492,0.010344,-0.016417,0.001908,0.001373
14.960000,9.514338,0.149761,0.185202,-0.015739,0.001726,-0.003244
14.970000,9.482267,0.153273,0.208256,-0.016342,0.004227,-0.009645
14.980000,9.431643,0.102924,0.311980,-0.017466,0.003032,-0.015972
14.990000,9.441217,0.482658,0.287331,-0.016568,0.006669,-0.020278
15.000000,9.656002,0.748742,-0.023289,-0.017145,0.010146,-0.019794
15.010000,9.697266,0.691957,0.404566,-0.017401,0.003717,-0.015963
15.020000,9.515932,0.562801,0.199416,-0.017137,0.012289,-0.011919
15.030000,9.515526,0.511302,0.042486,-0.016116,0.012902,-0.009365
15.040000,9.694884,0.640039,0.308707,-0.014366,0.007768,-0.002019
15.050000,10.001701,0.528944,0.349208,-0.015254,0.006543,0.000262
15.060000,10.003769,0.398281,0.312319,-0.016304,0.006455,0.002886
15.070000,10.007298,0.467525,0.465565,-0.017237,0.007874,0.004999
15.080000,10.058795,0.464242,0.283717,-0.017914,0.009799,0.005625
15.090000,9.984950,0.378396,0.368995,-0.018381,0.007328,0.004778
15.100000,9.995053,0.384933,0.448175,-0.019190,0.003527,0.003520
15.110000,9.974434,0.369161,0.301987,-0.021052,0.006591,0.001868
15.120000,9.916903,0.307593,0.357120,-0.022352,0.004627,0.001030
15.130000,9.859372,0.246025,0.412254,-0.023651,0.002664,0.000193
15.140000,9.801841,0.184456,0.467388,-0.024950,0.000700,-0.000645
15.150000,9.745456,0.125301,0.519454,-0.026250,-0.001263,-0.001482
15.160000,9.840511,0.386015,0.171859,-0.027228,0.000423,-0.001195
15.170000,9.859513,0.519027,0.212125,-0.027387,0.000256,-0.000713
15.180000,9.917419,0.511550,0.227919,-0.027452,-0.001955,-0.000648
15.190000,9.957443,0.460200,0.228918,-0.028763,-0.001216,0.003212
15.200000,9.767717,0.509670,0.209168,-0.030642,0.000043,0.010978
15.210000,9.790454,0.489460,0.282429,-0.030024,-0.000784,0.013542
15.220000,9.710564,0.088257,0.025506,-0.031870,0.004083,0.012338
15.230000,9.624012,-0.071985,0.257805,-0.033445,0.000870,0.009971
15.240000,9.783432,0.091123,0.270014,-0.033326,0.002331,0.006927
15.250000,9.713668,0.121921,0.220774,-0.033464,0.006399,0.001784
15.260000,9.718249,0.060811,0.369137,-0.033785,0.004341,-0.002122
15.270000,9.743400,0.159861,0.365005,-0.032822,0.006566,-0.005230
15.280000,9.629291,0.330700,0.269734,-0.031582,0.011652,-0.006765
15.290000,9.515182,0.501538,0.174463,-0.031424,0.007162,-0.007002
15.300000,9.669877,0.458376,0.135500,-0.031037,0.005379,-0.006247
15.310000,9.665604,0.372968,0.173778,-0.029978,0.011498,-0.002599
15.320000,9.719105,0.352157,0.341317,-0.029555,0.007232,-0.000557
15.330000,9.879423,0.253478,0.480066,-0.028711,0.011912,-0.002290
15.340000,9.839383,0.033148,0.466843,-0.027832,0.009277,-0.004048
15.350000,9.870173,0.111532,0.410734,-0.026326,0.005157,-0.008282
15.360000,9.806985,0.151140,0.269380,-0.025835,0.007311,-0.011356
15.370000,9.928897,0.183099,0.578953,-0.025936,-0.001858,-0.013254
15.380000,10.048122,0.230741,0.652636,-0.025615,-0.002454,-0.015339
15.390000,9.989347,0.336592,0.575357,-0.026615,-0.003920,-0.015938
15.400000,9.930881,0.442891,0.497993,-0.027614,-0.005386,-0.016538
15.410000,9.896757,0.497208,0.321912,-0.026479,-0.002385,-0.014132
15.420000,9.826745,0.410482,0.283184,-0.026351,-0.002428,-0.012809
15.430000,9.813975,0.335531,0.427460,-0.027038,-0.006723,-0.010047
15.440000,10.106159,0.395728,0.588601,-0.028999,-0.000031,-0.006009
15.450000,9.766470,0.696480,0.262312,-0.029429,-0.005831,-0.001787
15.460000,9.801621,0.787037,0.322025,-0.030587,-0.006386,0.003219
15.470000,9.701098,0.675223,0.069696,-0.032933,0.000397,0.010375
15.480000,9.555068,0.625094,0.191388,-0.033983,-0.000337,0.014746
15.490000,9.801525,0.485992,0.214026,-0.034575,-0.000914,0.017905
15.500000,9.686411,0.272254,0.280362,-0.036480,0.002332,0.016688
15.510000,9.605842,0.281529,0.344996,-0.037061,0.001343,0.013969
15.520000,9.428635,0.194193,0.086803,-0.038038,0.007563,0.009739
15.530000,9.363109,0.235583,-0.002600,-0.038699,0.011454,0.006268
15.540000,9.469944,0.364607,0.067723,-0.038151,0.011454,0.004567
15.550000,9.576778,0.493631,0.138046,-0.037603,0.011454,0.002866
15.560000,9.683613,0.622654,0.208369,-0.037055,0.011454,0.001164
15.570000,9.790448,0.751678,0.278693,-0.036507,0.011454,-0.000537
15.580000,9.807853,0.811646,0.167477,-0.035789,0.012238,-0.001257
15.590000,9.577147,0.667368,0.267409,-0.033966,0.014652,0.004518
15.600000,9.608496,0.507004,0.399542,-0.032628,0.012729,0.010551
15.610000,9.859981,0.386656,0.424928,-0.032488,0.012869,0.014200
15.620000,9.938078,0.291805,0.484919,-0.032234,0.013264,0.017199
15.630000,9.998188,0.138158,0.451242,-0.031541,0.014651,0.017661
15.640000,10.081945,0.048116,0.348277,-0.031115,0.014253,0.014311
15.650000,10.202762,0.072911,0.349735,-0.030724,0.013619,0.010454
15.660000,10.271720,0.104205,0.343982,-0.030334,0.012984,0.006596
15.670000,10.158672,0.158304,0.312916,-0.030485,0.011769,0.001518
15.680000,10.045623,0.212404,0.281851,-0.030813,0.010365,-0.003956
15.690000,9.932575,0.266503,0.250785,-0.031140,0.008961,-0.009430
15.700000,9.856562,0.295490,0.307407,-0.031699,0.005223,-0.012217
15.710000,9.898931,0.311679,0.353761,-0.032092,0.002504,-0.011792
15.720000,9.782469,0.421508,0.324433,-0.031896,0.003404,-0.008334
15.730000,9.776907,0.587863,0.495996,-0.032010,0.002559,-0.003020
15.740000,9.940116,0.693995,0.551789,-0.031927,0.003962,0.002838
15.750000,10.039208,0.632457,0.430119,-0.031957,0.004864,0.006944
15.760000,9.798860,0.546193,0.336161,-0.032001,0.005701,0.010822
15.770000,9.684620,0.373800,0.109452,-0.032045,0.006539,0.014699
15.780000,9.603021,0.232907,-0.040246,-0.032685,0.005795,0.016401
15.790000,9.660829,0.226548,0.138958,-0.034153,0.002860,0.015088
15.800000,9.705686,0.242907,0.299857,-0.035488,0.005477,0.012937
15.810000,9.662087,0.406340,0.330183,-0.036081,0.011076,0.009606
15.820000,9.661950,0.450412,0.392459,-0.035796,0.010505,0.006088
15.830000,9.661813,0.494483,0.454734,-0.035344,0.012308,0.004775
15.840000,9.661676,0.538555,0.517009,-0.034847,0.014746,0.004053
15.850000,9.661539,0.582627,0.579284,-0.034351,0.017184,0.003330
15.860000,9.623471,0.508593,0.090037,-0.033741,0.015799,0.002461
15.870000,9.628862,0.144401,0.498380,-0.033398,0.012637,0.001270
15.880000,9.859166,0.117876,0.614750,-0.033648,0.014727,-0.000067
15.890000,9.907547,0.168384,0.286079,-0.033496,0.014751,-0.001755
15.900000,9.674394,0.026536,0.352173,-0.032894,0.013321,-0.003992
15.910000,9.656469,-0.092204,0.524946,-0.031437,0.011710,-0.007750
15.920000,9.784417,0.052047,0.584227,-0.030035,0.007946,-0.014908
15.930000,9.785856,0.093427,0.586728,-0.029545,0.007439,-0.018778
15.940000,9.785660,0.133477,0.588495,-0.029120,0.008229,-0.020783
15.950000,9.785464,0.173527,0.590262,-0.029055,0.008641,-0.021417
15.960000,9.775600,0.298011,0.538429,-0.029536,0.008481,-0.019972
15.970000,9.765091,0.428133,0.483017,-0.030018,0.008320,-0.018528
15.980000,9.754582,0.558256,0.427605,-0.030418,0.007424,-0.014656
15.990000,9.835293,0.556119,0.443493,-0.030749,0.005910,-0.008742
16.000000,9.938270,0.521700,0.476784,-0.031080,0.004396,-0.002828
16.010000,10.041248,0.487280,0.510076,-0.031623,0.003577,0.002111
16.020000,10.144226,0.452860,0.543367,-0.032625,0.004266,0.004930
16.030000,10.071116,0.357188,0.579482,-0.033628,0.004955,0.007750
16.040000,10.054559,0.217537,0.673963,-0.035523,-0.004555,0.007097
16.050000,10.021472,0.316970,0.198626,-0.036055,0.002282,0.005012
16.060000,9.742390,0.261270,0.325545,-0.036881,-0.000356,0.001756
16.070000,9.612112,0.243544,0.408773,-0.037099,-0.003419,-0.001133
16.080000,9.557441,0.259541,0.403675,-0.036768,-0.001368,-0.003124
16.090000,9.502770,0.275538,0.398578,-0.036436,0.000683,-0.005114
16.100000,9.466029,0.340077,0.422162,-0.036104,0.002734,-0.007105
16.110000,9.465170,0.501757,0.503145,-0.035772,0.004785,-0.009096
16.120000,9.477352,0.608045,0.557588,-0.036753,-0.002235,-0.006283
16.130000,9.530642,0.539714,0.528364,-0.036236,-0.000453,-0.004906
16.140000,9.583933,0.471382,0.499141,-0.035656,0.001732,-0.003680
16.150000,9.637223,0.403050,0.469917,-0.035077,0.003916,-0.002454
16.160000,9.690513,0.334718,0.440693,-0.034497,0.006101,-0.001228
16.170000,9.743804,0.266386,0.411470,-0.033918,0.008285,-0.000002
16.180000,9.797094,0.198054,0.382246,-0.033338,0.010470,0.001224
16.190000,9.812168,0.092194,0.409121,-0.032779,0.012553,0.001834
16.200000,9.797328,0.038926,0.494346,-0.032387,0.013875,-0.001621
16.210000,9.878555,0.252648,0.434968,-0.032647,0.013355,-0.003832
16.220000,9.910726,0.424464,0.392745,-0.032861,0.012508,-0.006370
16.230000,9.880282,0.364871,0.386916,-0.033068,0.011611,-0.008956
16.240000,9.849837,0.305277,0.381086,-0.033275,0.010714,-0.011543
16.250000,9.819393,0.245684,0.375256,-0.033482,0.009818,-0.014129
16.260000,9.855909,0.273137,0.681723,-0.033720,0.003586,-0.015710
16.270000,9.941573,0.318460,0.502427,-0.032162,0.007370,-0.014709
16.280000,9.912265,0.456457,0.499480,-0.032575,0.005030,-0.010154
16.290000,10.026817,0.448845,0.635856,-0.033112,-0.000728,-0.006771
16.300000,10.014271,0.384922,0.628196,-0.033045,0.000112,-0.005393
16.310000,10.001724,0.320999,0.620536,-0.032978,0.000953,-0.004015
16.320000,9.989177,0.257076,0.612876,-0.032910,0.001793,-0.002636
16.330000,9.976630,0.193153,0.605215,-0.032843,0.002634,-0.001258
16.340000,9.836814,0.448524,0.496505,-0.033456,0.001548,-0.001558
16.350000,9.700968,0.362463,0.479910,-0.034178,0.000157,-0.002125
16.360000,9.565122,0.276402,0.463315,-0.034900,-0.001235,-0.002692
16.370000,9.886409,0.397672,0.503866,-0.034198,-0.002304,-0.004298
16.380000,9.807208,0.522066,0.461499,-0.033457,-0.002674,-0.005779
16.390000,9.573109,0.597723,0.387320,-0.033554,0.001577,-0.005586
16.400000,9.897375,0.568435,0.381567,-0.033262,0.004016,-0.003594
16.410000,9.908271,0.499345,0.307520,-0.032713,0.004662,-0.000248
16.420000,9.951103,0.504626,0.533235,-0.033257,0.000857,0.000731
16.430000,10.221364,0.542788,0.529416,-0.033377,0.001579,0.001952
16.440000,9.864670,0.264063,0.261513,-0.032777,0.003718,0.002797
16.450000,9.723805,0.128112,0.530481,-0.031588,0.002046,0.000865
16.460000,10.020556,0.262155,0.480800,-0.032611,0.001108,-0.001777
16.470000,9.866752,0.134263,0.529208,-0.032583,0.001222,-0.008680
16.480000,9.722292,-0.003352,0.614947,-0.031163,-0.001529,-0.013827
16.490000,9.685956,0.110155,0.420150,-0.031076,0.002852,-0.018142
16.500000,9.682763,0.200221,0.436710,-0.031466,-0.000635,-0.020955
16.510000,9.664291,0.121269,0.568264,-0.031730,-0.004392,-0.023616
16.520000,9.557313,0.072913,0.387693,-0.031613,-0.000167,-0.027019
16.530000,9.641432,0.344442,0.592014,-0.031130,-0.008233,-0.025463
16.540000,9.780881,0.681079,0.477562,-0.029811,-0.005624,-0.022814
16.550000,9.701749,0.592884,0.348929,-0.029780,-0.006811,-0.018552
16.560000,9.526056,0.532067,0.427841,-0.029537,-0.006414,-0.014050
16.570000,9.651141,0.666070,0.250985,-0.028625,-0.002636,-0.009637
16.580000,9.672516,0.533000,0.362455,-0.028264,-0.002704,-0.007172
16.590000,9.734660,0.368413,0.363657,-0.029331,-0.001286,-0.005450
16.600000,9.581424,0.336091,0.322772,-0.029218,0.002234,-0.007139
16.610000,9.401275,0.436514,0.398964,-0.028006,0.002695,-0.009843
16.620000,9.511569,0.516897,0.425712,-0.027743,0.000562,-0.010971
16.630000,9.639219,0.457050,0.327166,-0.027653,0.003211,-0.013272
16.640000,9.663121,0.432448,0.460130,-0.027689,0.002922,-0.015501
16.650000,9.811208,0.676394,0.558323,-0.026637,0.001226,-0.014878
16.660000,9.663498,0.783533,0.354396,-0.026930,0.007890,-0.014109
16.670000,9.800016,0.729659,0.612855,-0.027262,0.002246,-0.010245
16.680000,10.235025,0.857294,0.481352,-0.025450,0.004850,-0.005324
16.690000,10.025583,0.674773,0.563190,-0.025744,0.005607,-0.004253
16.700000,9.877168,0.589498,0.724057,-0.025467,0.004130,-0.002015
16.710000,9.984754,0.552238,0.687819,-0.024925,0.006146,-0.000591
16.720000,9.971410,0.476251,0.637842,-0.023579,0.008810,-0.000687
16.730000,10.024817,0.427321,0.720030,-0.025416,0.008570,-0.002604
16.740000,9.967361,0.357606,0.851726,-0.026857,0.007806,-0.003905
16.750000,9.960024,0.401893,0.984674,-0.027316,0.005741,-0.003675
16.760000,10.141591,0.607298,0.840232,-0.025209,0.001872,-0.002278
16.770000,10.096886,0.708850,0.668525,-0.025995,0.006154,-0.002628
16.780000,9.931871,0.706200,0.654046,-0.026525,0.006122,-0.001332
16.790000,9.963904,0.727012,0.652598,-0.026919,0.003807,0.000835
16.800000,9.995938,0.747825,0.651150,-0.027313,0.001492,0.003002
16.810000,10.027971,0.768638,0.649702,-0.027758,0.001984,0.012856
16.820000,9.891399,0.665123,0.604287,-0.028394,0.002160,0.019884
16.830000,9.748415,0.556880,0.557200,-0.029125,0.000699,0.021183
16.840000,9.641006,0.442083,0.443747,-0.028914,0.002118,0.020899
16.850000,9.563209,0.325471,0.360317,-0.028356,0.004598,0.020031
16.860000,9.614966,0.204110,0.483017,-0.028341,0.005451,0.017776
16.870000,9.579879,0.278725,0.454569,-0.028966,0.004173,0.011710
16.880000,9.525467,0.396947,0.392491,-0.027896,0.007533,0.005601
16.890000,9.514941,0.444505,0.394634,-0.026668,0.008977,0.000660
16.900000,9.571052,0.384765,0.494294,-0.025121,0.006587,-0.001941
16.910000,9.549322,0.396115,0.534614,-0.023278,0.006250,-0.004541
16.920000,9.501901,0.541635,0.497610,-0.021110,0.011284,-0.005519
16.930000,9.679196,0.514993,0.534912,-0.020771,0.009215,-0.004179
16.940000,9.742433,0.362944,0.544015,-0.020263,0.008427,-0.003621
16.950000,9.541108,0.127073,0.556644,-0.019435,0.006027,-0.004697
16.960000,9.953159,0.215251,0.724942,-0.017952,0.007998,-0.005750
16.970000,9.932249,0.509812,0.642294,-0.016521,0.013232,-0.007404
16.980000,10.109444,0.367514,0.682273,-0.016968,0.011606,-0.009707
16.990000,10.237609,0.271067,0.715750,-0.017069,0.006969,-0.009304
17.000000,10.213414,0.317100,0.729025,-0.017132,0.003799,-0.010906
17.010000,10.189220,0.363133,0.742299,-0.017176,0.001420,-0.013588
17.020000,10.170284,0.430508,0.766643,-0.017219,-0.000959,-0.016270
17.030000,10.157856,0.524292,0.804684,-0.017368,-0.002687,-0.018486
17.040000,10.050824,0.505938,0.802597,-0.018298,0.000390,-0.017270
17.050000,9.777320,0.424430,0.680781,-0.019229,0.003467,-0.016053
17.060000,9.970139,0.870266,0.650649,-0.018022,-0.001631,-0.009817
17.070000,9.851216,0.950215,0.536722,-0.018981,-0.002430,-0.006141
17.080000,9.903396,0.887192,0.636335,-0.019946,-0.003599,-0.001779
17.090000,9.940331,0.782048,0.771154,-0.020732,-0.003820,0.003462
17.100000,9.757061,0.860367,0.605047,-0.020487,0.004123,0.008106
17.110000,10.076452,0.932726,0.593985,-0.021395,0.006655,0.010041
17.120000,9.270637,0.388171,0.326583,-0.020871,0.005548,0.008643
17.130000,9.518701,0.401779,0.548576,-0.020199,0.002613,0.007417
17.140000,9.704372,0.481702,0.640007,-0.019886,0.000108,0.006979
17.150000,9.699298,0.498371,0.638739,-0.020208,0.000615,0.006212
17.160000,9.694225,0.515041,0.637470,-0.021454,0.005492,0.004966
17.170000,9.690644,0.560493,0.632625,-0.022699,0.010370,0.003721
17.180000,9.692469,0.710118,0.614834,-0.022092,0.015656,0.000761
17.190000,9.387153,0.685284,0.288249,-0.019944,0.019047,-0.002830
17.200000,9.484193,0.598976,0.456300,-0.018898,0.018056,-0.003931
17.210000,9.581233,0.512667,0.624350,-0.017852,0.017065,-0.005032
17.220000,9.629672,0.517376,0.711511,-0.017184,0.016104,-0.005272
17.230000,9.618808,0.633147,0.699967,-0.016792,0.015165,-0.004880
17.240000,9.631715,0.639267,0.670908,-0.016401,0.014225,-0.004489
17.250000,9.655464,0.595379,0.633860,-0.016009,0.013286,-0.004098
17.260000,9.679212,0.551492,0.596813,-0.014976,0.015052,-0.004165
17.270000,9.660603,0.504893,0.616253,-0.013762,0.017426,-0.004654
17.280000,9.605215,0.455940,0.684741,-0.013974,0.012010,-0.007415
17.290000,9.549827,0.406987,0.753230,-0.013272,0.014078,-0.009066
17.300000,9.683048,0.496209,0.780918,-0.012612,0.012913,-0.008919
17.310000,9.830464,0.595830,0.805535,-0.012127,0.009402,-0.008396
17.320000,9.977881,0.695452,0.830153,-0.011641,0.005892,-0.007873
17.330000,10.125298,0.795074,0.854770,-0.011156,0.002381,-0.007350
17.340000,9.938936,0.793610,0.813678,-0.012313,0.009714,-0.002932
17.350000,10.094497,0.863930,0.676170,-0.011611,0.008257,0.001860
17.360000,10.029294,1.048408,0.545764,-0.012204,0.009516,0.005043
17.370000,9.620107,0.774728,0.500850,-0.012796,0.010774,0.008226
17.380000,9.588485,0.506939,0.585921,-0.012256,0.011225,0.005441
17.390000,9.631101,0.392929,0.681711,-0.012031,0.009242,0.002649
17.400000,9.707732,0.543268,0.722539,-0.012252,0.006359,0.000721
17.410000,9.821530,0.600066,0.495611,-0.012358,0.008055,-0.000338
17.420000,9.493898,0.424029,0.646053,-0.013242,0.009039,-0.006200
17.430000,9.268714,0.651701,0.511597,-0.012883,0.012468,-0.007567
17.440000,9.567513,0.851120,0.501407,-0.012786,0.016425,-0.005896
17.450000,9.879367,1.043085,0.509194,-0.012717,0.016562,-0.002799
17.460000,9.430439,1.064224,0.614333,-0.012061,0.019921,0.000721
17.470000,9.631597,0.843620,0.672765,-0.011845,0.021878,0.004201
17.480000,9.863713,0.611504,0.728972,-0.011952,0.022306,0.007514
17.490000,9.838238,0.626920,0.733091,-0.012059,0.022733,0.010827
17.500000,9.601556,0.709446,0.677458,-0.011675,0.012628,0.013592
17.510000,9.492391,0.515929,0.642027,-0.011207,0.022045,0.013205
17.520000,9.992224,0.355010,0.824620,-0.011368,0.022606,0.010079
17.530000,9.901575,0.180675,0.717866,-0.011995,0.019061,0.006837
17.540000,10.175466,0.315186,0.823909,-0.012549,0.013600,0.002891
17.550000,10.016835,0.304074,0.807204,-0.012123,0.015258,-0.002823
17.560000,9.729040,0.175771,0.779816,-0.012730,0.016980,-0.009204
17.570000,10.160031,0.332010,1.081289,-0.012114,0.012732,-0.010708
17.580000,10.166411,0.508622,0.855420,-0.011878,0.009158,-0.008547
17.590000,10.172792,0.685234,0.629551,-0.011834,0.006149,-0.005538
17.600000,10.093812,0.771415,0.710482,-0.011790,0.003139,-0.002528
17.610000,9.977136,0.816578,0.887468,-0.011759,-0.001760,0.003743
17.620000,9.839115,0.830932,0.842197,-0.011964,-0.003629,0.012012
17.630000,9.888540,0.855316,0.750422,-0.012234,-0.003284,0.018245
17.640000,9.829561,0.609634,0.739344,-0.012486,-0.004462,0.019339
17.650000,9.567133,0.258526,0.693926,-0.012399,-0.001674,0.016144
17.660000,9.800720,0.302435,0.694207,-0.012662,-0.008875,0.012517
17.670000,9.575532,0.239240,0.617852,-0.012359,-0.009279,0.005237
17.680000,9.856882,0.405221,0.605351,-0.012363,-0.006700,0.000157
17.690000,9.677889,0.581501,0.626401,-0.012589,-0.005062,-0.002744
17.700000,9.875340,0.771196,0.765263,-0.012330,-0.008429,-0.002682
17.710000,10.111007,0.850249,0.827868,-0.012089,-0.009946,-0.000096
17.720000,10.415485,0.717968,1.015458,-0.013411,-0.005838,0.000853
17.730000,10.404445,0.812832,0.858707,-0.011483,-0.009793,0.005657
17.740000,10.186615,0.734215,0.787283,-0.010537,-0.007579,0.005621
17.750000,10.089243,0.587915,0.812055,-0.010271,-0.012219,0.005373
17.760000,9.251523,0.365987,0.556990,-0.009763,-0.008212,0.006491
17.770000,9.440210,0.372411,0.485530,-0.009637,-0.011215,0.005657
17.780000,9.628897,0.378834,0.414070,-0.009512,-0.014218,0.004823
17.790000,9.678897,0.476505,0.517128,-0.009387,-0.017221,0.003989
17.800000,9.691117,0.599032,0.667728,-0.009712,-0.014775,0.003182
17.810000,9.645210,0.648584,0.624148,-0.010092,-0.010050,0.002574
17.820000,9.597688,0.696107,0.575167,-0.009773,-0.011728,0.002175
17.830000,9.811172,0.627244,0.619420,-0.009547,-0.015846,0.003241
17.840000,9.795587,0.611131,0.517783,-0.009220,-0.016002,0.005285
17.850000,9.637806,0.678682,0.329592,-0.008654,-0.008259,0.006890
17.860000,9.603456,0.827225,0.377510,-0.009864,-0.008303,0.010755
17.870000,9.449169,0.807968,0.440738,-0.010324,-0.009810,0.013646
17.880000,9.491786,0.735195,0.593263,-0.010444,-0.011245,0.016099
17.890000,9.355476,0.694062,0.477306,-0.009390,-0.005239,0.017365
17.900000,9.827814,0.499500,0.468814,-0.008635,-0.006032,0.014326
17.910000,9.483112,0.345262,0.416150,-0.008091,-0.005913,0.009912
17.920000,9.579607,0.489220,0.434822,-0.007350,-0.002875,0.005233
17.930000,9.366628,0.500104,0.373524,-0.007683,0.002791,0.003316
17.940000,9.362576,0.503790,0.347142,-0.008008,0.007111,0.002168
17.950000,9.672331,0.505913,0.414482,-0.007909,0.008157,0.003157
17.960000,9.653778,0.574514,0.545821,-0.006578,0.011857,0.002218
17.970000,9.958885,0.699511,0.738540,-0.006115,0.009172,0.001477
17.980000,9.666331,0.869931,0.526259,-0.005463,0.016712,0.005806
17.990000,9.506725,0.722445,0.501048,-0.004177,0.018550,0.008698
18.000000,9.959117,0.621333,0.544899,-0.003330,0.013157,0.010408
18.010000,10.132877,0.450037,0.568006,-0.003062,0.013372,0.009226
18.020000,10.206096,0.349462,0.611544,-0.002793,0.013587,0.008043
18.030000,9.959739,0.473676,0.720024,-0.002826,0.014243,0.006258
18.040000,10.125247,0.527007,0.753766,-0.003588,0.016106,0.003011
18.050000,10.117174,0.506069,0.700555,-0.003962,0.017980,0.000513
18.060000,9.859753,0.459541,0.600378,-0.004553,0.014207,0.001041
18.070000,10.263869,0.584023,0.689569,-0.005149,0.010308,0.001636
18.080000,10.388257,0.649427,0.726484,-0.005671,0.008158,0.002159
18.090000,10.276924,0.520118,0.571173,-0.005801,0.015329,0.002289
18.100000,10.330482,0.446126,0.448576,-0.006325,0.017513,0.001097
18.110000,10.281746,0.405448,0.369666,-0.006855,0.019631,-0.000113
18.120000,9.819044,0.499581,0.467545,-0.007364,0.024172,-0.002696
18.130000,9.746524,0.796290,0.865265,-0.007473,0.017989,-0.001069
18.140000,9.502342,0.837336,0.684809,-0.007653,0.024637,0.005448
18.150000,9.457359,0.743692,0.748458,-0.007760,0.022070,0.008015
18.160000,9.890108,0.801796,0.726160,-0.007789,0.023953,0.012173
18.170000,9.752997,0.549827,0.735650,-0.007860,0.019897,0.013582
18.180000,9.622114,0.373176,0.722279,-0.007843,0.014577,0.013015
18.190000,9.503007,0.338988,0.665666,-0.007244,0.016854,0.008582
18.200000,9.383901,0.304800,0.609054,-0.006645,0.019130,0.004149
18.210000,9.327427,0.280657,0.590035,-0.008083,0.018529,0.001053
18.220000,9.917611,0.360221,0.959151,-0.007576,0.013793,0.000291
18.230000,9.870146,0.516716,0.732554,-0.007123,0.011399,-0.000718
18.240000,9.432215,0.743610,0.589562,-0.006864,0.017336,-0.002541
18.250000,9.374001,0.687487,0.714718,-0.006367,0.012991,0.000686
18.260000,9.656430,0.516393,0.839015,-0.006261,0.011784,0.002077
18.270000,10.039081,0.413321,0.927937,-0.006161,0.010147,0.002239
18.280000,9.969490,0.478094,0.922852,-0.005766,0.007397,0.001674
18.290000,9.903505,0.541656,0.917105,-0.005107,0.003705,0.000487
18.300000,9.980547,0.557161,0.885125,-0.004556,0.000538,-0.000784
18.310000,10.065465,0.453255,0.907920,-0.004433,-0.000571,-0.002386
18.320000,10.104926,0.369523,0.872864,-0.002897,-0.008723,-0.002796
18.330000,10.147694,0.458074,0.761298,-0.002444,-0.007590,-0.005549
18.340000,10.369314,0.473368,0.865471,-0.003229,-0.012624,-0.006007
18.350000,10.343369,0.494437,0.909004,-0.003777,-0.014308,-0.006485
18.360000,10.456536,0.695613,1.062076,-0.004737,-0.019226,-0.004270
18.370000,10.354985,0.738870,0.934729,-0.005447,-0.023365,-0.001986
18.380000,10.181285,0.588449,0.847776,-0.005684,-0.024148,-0.000399
