time_s,accel_x,accel_y,accel_z,gyro_x,gyro_y,gyro_z
0.000000,9.849518,0.143701,1.179547,-0.022755,0.002902,0.005956
0.010000,9.849518,0.143701,1.179547,-0.022755,0.002902,0.005956
0.020000,9.849518,0.143701,1.179547,-0.022755,0.002902,0.005956
0.030000,9.849518,0.143701,1.179547,-0.022755,0.002902,0.005956
0.040000,9.849518,0.143701,1.179547,-0.022755,0.002902,0.005956
0.050000,9.849518,0.143701,1.179547,-0.022755,0.002902,0.005956
0.060000,9.849518,0.143701,1.179547,-0.022755,0.002902,0.005956
0.070000,9.849518,0.143701,1.179547,-0.022755,0.002902,0.005956
0.080000,9.849518,0.143701,1.179547,-0.022755,0.002902,0.005956
0.090000,9.849518,0.143701,1.179547,-0.022755,0.002902,0.005956
0.100000,9.849518,0.143701,1.179547,-0.022755,0.002902,0.005956
0.110000,9.849518,0.143701,1.179547,-0.022755,0.002902,0.005956
0.120000,9.849518,0.143701,1.179547,-0.022755,0.002902,0.005956
0.130000,9.849518,0.143701,1.179547,-0.022755,0.002902,0.005956
0.140000,9.849518,0.143701,1.179547,-0.022755,0.002902,0.005956
0.150000,9.849518,0.143701,1.179547,-0.022755,0.002902,0.005956
0.160000,9.849518,0.143701,1.179547,-0.022755,0.002902,0.005956
0.170000,9.849518,0.143701,1.179547,-0.022755,0.002902,0.005956
0.180000,9.849518,0.143701,1.179547,-0.022755,0.002902,0.005956
0.190000,9.849518,0.143701,1.179547,-0.022755,0.002902,0.005956
0.200000,9.849518,0.143701,1.179547,-0.022755,0.002902,0.005956
0.210000,9.849518,0.143701,1.179547,-0.022755,0.002902,0.005956
0.220000,9.849518,0.143701,1.179547,-0.022755,0.002902,0.005956
0.230000,9.818172,0.135532,1.187716,-0.022755,0.002902,0.005956
0.240000,9.651969,0.092219,1.231030,-0.023031,0.002764,0.006232
0.250000,9.705644,0.204891,1.169152,-0.024034,0.001636,0.006400
0.260000,9.823860,0.239603,1.195156,-0.024011,0.001593,0.006261
0.270000,9.755229,0.146987,1.206359,-0.023283,0.002630,0.006261
0.280000,9.748035,0.090939,1.213364,-0.023216,0.001380,0.006261
0.290000,9.814518,0.183759,1.169614,-0.023592,0.002186,0.006130
0.300000,9.826029,0.268784,1.191892,-0.023277,0.001766,0.005605
0.310000,9.691082,0.163502,1.225681,-0.023467,0.002853,0.007125
0.320000,9.809386,0.091623,1.211588,-0.023628,0.002181,0.007263
0.330000,9.876551,0.170808,1.241133,-0.024149,0.001421,0.005864
0.340000,9.632021,0.230213,1.191141,-0.024412,0.003697,0.005237
0.350000,9.625306,0.261164,1.217301,-0.024154,0.001040,0.004772
0.360000,9.858509,0.189255,1.188414,-0.023829,0.001064,0.005035
0.370000,9.866696,0.140658,1.211459,-0.023649,0.002654,0.005163
0.380000,9.663476,0.140368,1.221022,-0.023394,0.003620,0.004598
0.390000,9.676913,0.304511,1.172596,-0.024840,0.001959,0.004708
0.400000,9.791004,0.340970,1.166724,-0.024336,0.002372,0.004797
0.410000,9.748208,0.228038,1.211901,-0.023751,0.003332,0.005637
0.420000,9.753099,0.133074,1.237736,-0.024508,0.001527,0.006126
0.430000,9.829195,0.245315,1.180659,-0.024493,0.001394,0.006214
0.440000,9.726202,0.365238,1.137024,-0.024050,0.002470,0.006250
0.450000,9.642778,0.304333,1.155767,-0.024001,0.002468,0.006567
0.460000,9.743776,0.191519,1.182182,-0.023765,0.000966,0.007277
0.470000,9.924819,0.188641,1.201972,-0.023577,0.000963,0.007741
0.480000,9.722611,0.259974,1.158670,-0.023403,0.003156,0.006520
0.490000,9.627856,0.317025,1.203133,-0.023479,0.002839,0.005582
0.500000,9.777604,0.300290,1.140393,-0.023518,0.002713,0.006425
0.510000,9.924528,0.162488,1.214195,-0.022933,0.001579,0.006859
0.520000,9.730264,0.095658,1.211566,-0.023968,0.003050,0.007568
0.530000,9.702053,0.232983,1.206783,-0.023634,0.002814,0.005217
0.540000,9.785600,0.351832,1.165580,-0.023213,0.001921,0.005630
0.550000,9.732668,0.273482,1.178734,-0.023360,0.002296,0.006414
0.560000,9.737232,0.087948,1.244226,-0.024149,0.001772,0.006326
0.570000,9.837965,0.119835,1.226992,-0.023556,0.002374,0.006162
0.580000,9.784109,0.256014,1.220933,-0.023124,0.002321,0.006710
0.590000,9.654429,0.261578,1.221780,-0.023582,0.002764,0.006519
0.600000,9.724134,0.163036,1.203239,-0.023894,0.002455,0.006227
0.610000,9.876629,0.099539,1.218927,-0.023737,0.001647,0.006720
0.620000,9.780446,0.137857,1.214446,-0.023771,0.002922,0.006017
0.630000,9.690401,0.196377,1.235622,-0.023433,0.003859,0.005706
0.640000,9.713161,0.210759,1.252594,-0.022876,0.003700,0.005786
0.650000,9.832339,0.174534,1.235206,-0.023381,0.002204,0.005455
0.660000,9.766371,0.104715,1.215286,-0.024216,0.000755,0.004865
0.670000,9.705220,0.103041,1.219755,-0.024730,0.002989,0.003806
0.680000,9.703133,0.149964,1.234692,-0.024392,0.002854,0.004414
0.690000,9.721267,0.146248,1.218044,-0.024161,0.002578,0.004972
0.700000,9.739401,0.142532,1.201397,-0.024306,0.001808,0.005357
0.710000,9.757535,0.138816,1.184749,-0.024450,0.001038,0.005742
0.720000,9.756959,0.167390,1.169225,-0.024566,0.000439,0.006103
0.730000,9.690044,0.310450,1.157688,-0.024132,0.003154,0.005995
0.740000,9.714249,0.220894,1.205526,-0.023873,0.002463,0.005645
0.750000,9.795627,0.202155,1.152667,-0.023839,0.002733,0.006164
0.760000,9.820118,0.204051,1.165624,-0.023876,0.002696,0.006293
0.770000,9.844608,0.205947,1.178580,-0.023913,0.002659,0.006423
0.780000,9.869099,0.207843,1.191536,-0.023950,0.002622,0.006552
0.790000,9.865277,0.222223,1.195975,-0.023987,0.002585,0.006682
0.800000,9.850652,0.241367,1.197165,-0.024024,0.002548,0.006811
0.810000,9.836027,0.260511,1.198354,-0.024061,0.002511,0.006941
0.820000,9.821401,0.279654,1.199543,-0.024098,0.002474,0.007070
0.830000,9.806776,0.298798,1.200732,-0.024068,0.002300,0.007219
0.840000,9.802789,0.242620,1.199098,-0.023703,0.001449,0.007462
0.850000,9.811991,0.200193,1.196538,-0.022993,0.003679,0.006924
0.860000,9.837861,0.297544,1.193690,-0.023523,0.001879,0.007241
0.870000,9.695692,0.309168,1.164183,-0.023407,0.002430,0.007330
0.880000,9.743181,0.146198,1.257106,-0.023464,0.002831,0.007707
0.890000,9.883949,0.123364,1.227137,-0.024164,0.002401,0.007934
0.900000,9.836530,0.177184,1.229697,-0.024247,0.001571,0.007186
0.910000,9.633031,0.239622,1.187302,-0.023954,0.001477,0.006836
0.920000,9.613064,0.269360,1.222563,-0.023389,0.001916,0.006773
0.930000,9.825758,0.201440,1.170559,-0.022956,0.002072,0.006647
0.940000,9.799539,0.056936,1.233284,-0.023291,0.001267,0.006027
0.950000,9.652987,0.173049,1.230992,-0.024118,0.001891,0.005045
0.960000,9.748811,0.330686,1.174908,-0.023885,0.001268,0.005162
0.970000,9.762349,0.268497,1.191754,-0.023191,0.002487,0.005572
0.980000,9.702406,0.068719,1.264725,-0.023349,0.002747,0.006400
0.990000,9.796800,0.159831,1.223137,-0.022806,0.002679,0.005924
1.000000,9.891195,0.250942,1.181548,-0.022263,0.002611,0.005449
1.010000,9.659378,0.346664,1.121860,-0.023571,0.003452,0.005773
1.020000,9.697684,0.160774,1.189409,-0.023932,0.001418,0.006393
1.030000,9.883748,0.115158,1.196991,-0.023934,0.000810,0.006278
1.040000,9.844660,0.177517,1.212604,-0.023999,0.001630,0.005628
1.050000,9.648507,0.262718,1.207935,-0.024121,0.003835,0.005358
1.060000,9.694545,0.303176,1.158206,-0.024350,0.003038,0.004803
1.070000,9.864975,0.226906,1.166020,-0.023710,0.000996,0.004829
1.080000,9.826882,0.127798,1.186402,-0.023638,0.001299,0.005159
1.090000,9.783104,0.180260,1.169769,-0.024034,0.001997,0.005513
1.100000,9.786053,0.315300,1.146476,-0.024410,0.001470,0.005814
1.110000,9.778198,0.382560,1.166272,-0.024344,0.002013,0.005834
1.120000,9.712926,0.269431,1.228160,-0.023938,0.002859,0.005496
1.130000,9.717751,0.142719,1.251862,-0.024364,0.000938,0.006447
1.140000,9.902323,0.240229,1.223924,-0.022781,0.001425,0.007177
1.150000,9.690955,0.352046,1.211790,-0.023965,0.002810,0.005651
1.160000,9.654368,0.263425,1.220241,-0.023673,0.001710,0.005922
1.170000,9.734061,0.210510,1.183909,-0.023085,0.001845,0.006964
1.180000,9.698347,0.222991,1.212903,-0.023183,0.001894,0.006719
1.190000,9.662632,0.235472,1.241897,-0.023281,0.001943,0.006474
1.200000,9.654200,0.242063,1.263809,-0.023372,0.001991,0.006267
1.210000,9.756723,0.224700,1.256919,-0.023417,0.002037,0.006313
1.220000,9.854972,0.207118,1.250010,-0.023463,0.002083,0.006359
1.230000,9.785110,0.180920,1.242336,-0.023509,0.002129,0.006405
1.240000,9.715248,0.154722,1.234662,-0.023739,0.002249,0.006414
1.250000,9.810525,0.286838,1.163764,-0.023638,0.002415,0.006538
1.260000,9.789842,0.226375,1.169298,-0.023370,0.002593,0.006716
1.270000,9.760381,0.120387,1.177561,-0.023097,0.002328,0.006273
1.280000,9.747444,0.183790,1.180683,-0.023023,0.002312,0.006072
1.290000,9.734896,0.251172,1.183684,-0.023404,0.002883,0.006453
1.300000,9.696280,0.190594,1.249623,-0.024012,0.001672,0.007258
1.310000,9.816529,0.142139,1.197315,-0.024144,0.002696,0.007498
1.320000,9.827187,0.178650,1.194184,-0.023557,0.002225,0.006602
1.330000,9.660770,0.205111,1.169079,-0.023851,0.004712,0.005839
1.340000,9.689053,0.225519,1.195480,-0.024444,0.001671,0.005956
1.350000,9.818525,0.219933,1.182846,-0.024630,0.001143,0.005999
1.360000,9.795111,0.150248,1.210487,-0.024577,0.000357,0.005819
1.370000,9.675787,0.196822,1.221132,-0.024268,0.002596,0.004915
1.380000,9.749407,0.314012,1.184243,-0.023838,0.002397,0.004581
1.390000,9.796838,0.294745,1.201503,-0.023191,0.002400,0.004363
1.400000,9.725086,0.156167,1.233741,-0.023773,0.002087,0.005583
1.410000,9.763362,0.162094,1.198135,-0.023588,0.002115,0.006344
1.420000,9.850850,0.316297,1.177852,-0.023386,0.001478,0.005622
1.430000,9.676049,0.353541,1.151100,-0.024112,0.002569,0.005946
1.440000,9.699025,0.206093,1.235806,-0.023274,0.001872,0.004530
1.450000,9.873182,0.148371,1.194988,-0.024874,0.002849,0.007173
1.460000,9.892344,0.188991,1.217822,-0.024041,0.001679,0.006977
1.470000,9.653500,0.265199,1.174123,-0.022755,0.003587,0.006612
1.480000,9.667509,0.287961,1.186958,-0.023298,0.001445,0.005900
1.490000,9.817201,0.241737,1.163117,-0.024711,0.002243,0.005431
1.500000,9.933755,0.125659,1.235863,-0.024593,0.001417,0.005785
1.510000,9.730220,0.107475,1.216666,-0.023394,0.004184,0.005927
1.520000,9.693132,0.214616,1.222335,-0.023129,0.002682,0.006192
1.530000,9.767158,0.323304,1.169621,-0.024471,0.001726,0.005274
1.540000,9.772919,0.223601,1.207710,-0.023667,0.001923,0.005258
1.550000,9.768557,0.112484,1.226326,-0.023773,0.001990,0.005734
1.560000,9.789873,0.074870,1.238907,-0.024553,0.001499,0.006261
1.570000,9.827053,0.082660,1.247760,-0.024238,0.001923,0.006195
1.580000,9.864233,0.090450,1.256612,-0.024176,0.002260,0.006103
1.590000,9.901413,0.098240,1.265464,-0.024115,0.002597,0.006011
1.600000,9.938593,0.106030,1.274317,-0.024054,0.002934,0.005919
1.610000,9.904544,0.158644,1.242849,-0.023992,0.003272,0.005827
1.620000,9.811107,0.248629,1.177763,-0.024079,0.003053,0.005428
1.630000,9.730081,0.310339,1.125887,-0.024217,0.002638,0.004921
1.640000,9.743031,0.157929,1.174034,-0.024355,0.002223,0.004414
1.650000,9.741246,0.091681,1.212838,-0.024375,0.001568,0.004421
1.660000,9.758690,0.258321,1.197548,-0.024402,0.001397,0.005367
1.670000,9.774947,0.376731,1.174327,-0.024022,0.002461,0.005705
1.680000,9.693271,0.239441,1.210059,-0.023611,0.002934,0.005530
1.690000,9.759501,0.140161,1.194275,-0.023877,0.001923,0.005959
1.700000,9.884294,0.222552,1.184221,-0.023751,0.000361,0.006672
1.710000,9.786515,0.317379,1.162033,-0.023764,0.001766,0.006222
1.720000,9.676315,0.299210,1.194434,-0.023363,0.002038,0.005573
1.730000,9.786054,0.220380,1.148369,-0.023728,0.000406,0.005192
1.740000,9.909462,0.162809,1.227232,-0.023534,0.000156,0.006988
1.750000,9.706980,0.191542,1.197788,-0.024114,0.003756,0.007323
1.760000,9.674678,0.262964,1.243294,-0.023425,0.001542,0.007136
1.770000,9.765395,0.280138,1.188691,-0.022671,0.002541,0.007691
1.780000,9.787073,0.172372,1.225016,-0.022144,0.001587,0.006027
1.790000,9.697481,0.127302,1.218083,-0.022734,0.002547,0.005017
1.800000,9.759102,0.218675,1.208890,-0.024026,0.002443,0.004257
1.810000,9.805134,0.290597,1.192869,-0.023914,0.002713,0.006432
1.820000,9.703492,0.183901,1.245919,-0.023916,0.002094,0.006945
1.830000,9.714663,0.122866,1.237791,-0.023847,0.001721,0.007017
1.840000,9.784759,0.166521,1.221641,-0.023108,0.002186,0.006920
1.850000,9.826166,0.223198,1.226480,-0.022455,0.001533,0.006267
1.860000,9.696659,0.232433,1.215853,-0.025070,0.003213,0.005601
1.870000,9.777979,0.145448,1.248236,-0.024962,0.001443,0.005503
1.880000,9.913377,0.129656,1.211512,-0.024423,0.000905,0.005862
1.890000,9.731358,0.171696,1.163929,-0.024419,0.000695,0.006162
1.900000,9.659259,0.217306,1.198048,-0.024577,0.000683,0.006455
1.910000,9.792421,0.220908,1.158791,-0.024474,0.001407,0.006869
1.920000,9.866493,0.117918,1.213336,-0.023796,0.001311,0.006020
1.930000,9.698903,0.133610,1.191853,-0.023807,0.002782,0.004303
1.940000,9.714530,0.260836,1.187233,-0.024390,0.001615,0.004420
1.950000,9.797384,0.296236,1.169056,-0.024060,0.001735,0.004679
1.960000,9.751424,0.175573,1.212369,-0.023874,0.002630,0.006125
1.970000,9.748038,0.125458,1.194320,-0.024206,0.002909,0.005947
1.980000,9.811918,0.262818,1.175536,-0.023939,0.002974,0.005094
1.990000,9.675014,0.346593,1.144519,-0.023299,0.001967,0.004911
2.000000,9.629083,0.290162,1.169448,-0.023441,0.003174,0.005725
2.010000,9.655292,0.205068,1.227993,-0.023786,0.001966,0.006071
2.020000,9.911196,0.165108,1.244820,-0.023413,0.002141,0.005595
2.030000,9.624328,0.254209,1.180408,-0.023475,0.004387,0.005083
2.040000,9.594142,0.351808,1.222533,-0.024546,0.001358,0.006067
2.050000,9.768837,0.315033,1.172535,-0.023361,0.003350,0.005510
2.060000,9.889152,0.197108,1.216206,-0.023067,0.002763,0.006268
2.070000,9.778911,0.229603,1.221065,-0.023144,0.002916,0.006345
2.080000,9.701336,0.280509,1.220645,-0.023213,0.002931,0.006402
2.090000,9.773134,0.415602,1.196083,-0.023213,0.001732,0.006282
2.100000,9.729120,0.248939,1.249038,-0.023733,0.002480,0.007347
2.110000,9.779809,0.110537,1.253675,-0.024007,0.002046,0.008185
2.120000,9.878812,0.194982,1.212261,-0.024172,0.001906,0.008203
2.130000,9.785940,0.323069,1.179216,-0.024816,0.002251,0.007674
2.140000,9.651129,0.280192,1.187589,-0.025033,0.004312,0.007782
2.150000,9.792882,0.132741,1.184306,-0.024185,0.001959,0.008351
2.160000,9.954145,0.084500,1.252787,-0.023476,0.000487,0.007018
2.170000,9.762495,0.163461,1.214297,-0.023588,0.002346,0.006567
2.180000,9.650226,0.267059,1.229729,-0.024946,0.001117,0.005675
2.190000,9.743026,0.262903,1.130498,-0.023988,0.001974,0.005168
2.200000,9.885717,0.165235,1.159596,-0.023257,0.002574,0.005562
2.210000,9.717890,0.009956,1.180624,-0.023597,0.003098,0.006547
2.220000,9.725588,0.149048,1.199330,-0.024490,0.001509,0.006190
2.230000,9.798825,0.255397,1.160165,-0.022595,0.001367,0.005665
2.240000,9.784686,0.199346,1.166730,-0.022553,0.001326,0.005748
2.250000,9.770547,0.143294,1.173294,-0.022512,0.001284,0.005831
2.260000,9.756408,0.087243,1.179859,-0.022471,0.001243,0.005913
2.270000,9.864972,0.180607,1.194964,-0.022608,0.001345,0.005815
2.280000,9.828927,0.177228,1.176003,-0.022935,0.001599,0.005525
2.290000,9.792882,0.173849,1.157042,-0.023261,0.001853,0.005234
2.300000,9.754898,0.173793,1.151551,-0.023588,0.002108,0.004944
2.310000,9.710389,0.184920,1.191394,-0.023853,0.002174,0.004793
2.320000,9.675201,0.216813,1.229463,-0.023958,0.001755,0.005002
2.330000,9.647309,0.264956,1.266143,-0.023763,0.001573,0.004506
2.340000,9.823876,0.268014,1.214488,-0.023565,0.001634,0.004489
2.350000,9.754730,0.187176,1.216731,-0.024029,0.001616,0.004390
2.360000,9.719978,0.242912,1.204931,-0.024738,0.001527,0.004124
2.370000,9.854824,0.365467,1.172136,-0.024464,0.001474,0.004006
2.380000,9.817873,0.336368,1.201235,-0.025046,0.000427,0.004704
2.390000,9.710859,0.189660,1.257006,-0.022211,0.002135,0.006171
2.400000,9.780351,0.261774,1.230258,-0.023214,0.001427,0.005758
2.410000,9.843689,0.332348,1.203529,-0.024217,0.000719,0.005345
2.420000,9.712594,0.297934,1.209386,-0.024074,0.002002,0.006179
2.430000,9.781750,0.201959,1.223169,-0.023705,0.000436,0.006041
2.440000,9.914077,0.173792,1.189089,-0.022780,0.001095,0.006887
2.450000,9.734266,0.214892,1.153846,-0.023498,0.001720,0.006378
2.460000,9.625417,0.261434,1.185857,-0.023858,0.001065,0.006380
2.470000,9.761534,0.240217,1.157727,-0.024611,0.001163,0.006214
2.480000,9.891161,0.123745,1.209192,-0.022578,0.001374,0.006623
2.490000,9.693395,0.082839,1.211375,-0.022283,0.002207,0.005887
2.500000,9.639526,0.216672,1.201179,-0.023941,0.002739,0.004458
2.510000,9.781690,0.303235,1.148816,-0.023824,0.001375,0.005192
2.520000,9.765568,0.179449,1.172835,-0.023131,0.001985,0.006322
2.530000,9.679281,0.039189,1.227892,-0.024129,0.002001,0.007049
2.540000,9.761668,0.110573,1.202265,-0.024129,0.002114,0.006145
2.550000,9.798516,0.258045,1.190543,-0.023969,0.002026,0.005032
2.560000,9.616123,0.279560,1.179389,-0.023630,0.003853,0.004610
2.570000,9.695011,0.140464,1.244401,-0.024037,0.001210,0.004711
2.580000,9.904523,0.082961,1.230760,-0.023507,0.001880,0.005181
2.590000,9.915763,0.119363,1.238242,-0.023146,0.000979,0.004820
2.600000,9.665959,0.223161,1.174726,-0.024264,0.002066,0.004166
2.610000,9.716099,0.288508,1.167060,-0.024367,0.001734,0.003680
2.620000,9.898821,0.194160,1.222718,-0.023536,0.000527,0.003843
2.630000,9.814438,0.081406,1.231759,-0.023474,0.001368,0.003971
2.640000,9.725961,0.208220,1.238773,-0.023518,0.001607,0.003844
2.650000,9.822031,0.404223,1.160555,-0.024237,0.002102,0.003818
2.660000,9.773282,0.340511,1.181632,-0.024278,0.001507,0.003984
2.670000,9.718906,0.110908,1.255366,-0.024113,0.000638,0.004636
2.680000,9.815999,0.096202,1.202480,-0.023682,0.001357,0.006073
2.690000,9.873857,0.293029,1.206806,-0.025021,0.001104,0.004623
2.700000,9.727483,0.376684,1.180466,-0.025131,0.001069,0.004563
2.710000,9.634811,0.317531,1.206515,-0.025054,0.001069,0.004717
2.720000,9.776791,0.211951,1.178415,-0.024410,0.001005,0.004988
2.730000,9.768365,0.214921,1.188289,-0.023696,0.000934,0.005274
2.740000,9.691284,0.247279,1.204939,-0.024323,0.002056,0.005433
2.750000,9.610839,0.277074,1.212554,-0.024697,0.001308,0.005309
2.760000,9.692151,0.334606,1.134108,-0.025008,0.000639,0.005202
2.770000,9.812518,0.222193,1.209934,-0.024465,0.001046,0.005337
2.780000,9.824450,0.233030,1.202767,-0.023921,0.001454,0.005473
2.790000,9.820420,0.262010,1.183382,-0.023542,0.001855,0.005545
2.800000,9.816389,0.290991,1.163998,-0.023200,0.002255,0.005602
2.810000,9.656967,0.142526,1.213918,-0.023715,0.002365,0.004612
2.820000,9.743684,0.099924,1.172073,-0.024525,0.002570,0.005695
2.830000,9.858963,0.183684,1.175323,-0.023522,0.002187,0.006414
2.840000,9.728740,0.261273,1.137663,-0.023570,0.002912,0.006414
2.850000,9.736000,0.214307,1.148313,-0.023618,0.003637,0.006414
2.860000,9.766358,0.146414,1.167080,-0.023667,0.004361,0.006414
2.870000,9.766867,0.146794,1.177249,-0.023772,0.003622,0.007322
2.880000,9.753753,0.178330,1.183494,-0.024079,0.002612,0.006599
2.890000,9.703521,0.207221,1.212061,-0.024282,0.001938,0.005695
2.900000,9.774974,0.224234,1.161704,-0.024282,0.001590,0.005772
2.910000,9.761561,0.221305,1.173451,-0.024282,0.001242,0.005850
2.920000,9.717715,0.211226,1.207470,-0.024282,0.000894,0.005927
2.930000,9.727162,0.220868,1.231720,-0.024085,0.001207,0.005857
2.940000,9.831377,0.265581,1.238599,-0.023770,0.001916,0.005700
2.950000,9.697457,0.157515,1.261679,-0.023412,0.001403,0.005306
2.960000,9.687257,0.210894,1.234784,-0.023771,0.001454,0.005511
2.970000,9.681179,0.268170,1.206975,-0.024130,0.001505,0.005716
2.980000,9.675102,0.325447,1.179165,-0.024629,0.001736,0.006081
2.990000,9.680335,0.224262,1.242102,-0.024352,0.001847,0.006137
3.000000,9.839655,0.180881,1.192890,-0.023988,0.000659,0.006109
3.010000,9.943173,0.186658,1.210223,-0.024390,-0.000353,0.005971
3.020000,9.751083,0.254816,1.177723,-0.024272,-0.000174,0.006199
3.030000,9.725549,0.254012,1.179582,-0.024091,0.000143,0.006471
3.040000,9.828346,0.201275,1.207691,-0.023910,0.000460,0.006743
3.050000,9.856028,0.155017,1.214813,-0.023979,0.001115,0.006485
3.060000,9.735921,0.136829,1.190162,-0.024274,0.002073,0.005747
3.070000,9.707612,0.299194,1.178458,-0.023889,0.002518,0.005501
3.080000,9.823291,0.337678,1.151927,-0.023094,0.002263,0.006012
3.090000,9.749629,0.123780,1.202809,-0.023118,0.003191,0.006472
3.100000,9.762550,0.079606,1.215943,-0.023553,0.003325,0.006397
3.110000,9.830327,0.176323,1.185802,-0.023496,0.002399,0.006425
3.120000,9.663772,0.338530,1.144396,-0.023678,0.003646,0.005827
3.130000,9.632891,0.198426,1.229218,-0.024120,0.002275,0.007496
3.140000,9.825554,0.104718,1.186638,-0.023703,0.001581,0.008051
3.150000,10.002801,0.091271,1.249211,-0.023068,-0.000432,0.006436
3.160000,9.715415,0.189307,1.180245,-0.022937,0.003697,0.005507
3.170000,9.614685,0.217867,1.226944,-0.023709,0.003182,0.006193
3.180000,9.735006,0.251604,1.153507,-0.023794,0.002232,0.006471
3.190000,9.830832,0.115518,1.228850,-0.023061,0.000767,0.006257
3.200000,9.738338,0.067551,1.236972,-0.023453,0.001530,0.004800
3.210000,9.697613,0.140299,1.259265,-0.024298,0.001002,0.003955
3.220000,9.780475,0.331344,1.182747,-0.024587,0.002585,0.003242
3.230000,9.701361,0.189358,1.209813,-0.024568,0.001908,0.005669
3.240000,9.751438,0.070254,1.234464,-0.024330,0.001505,0.005803
3.250000,9.872711,0.191235,1.198159,-0.023799,0.001431,0.005803
3.260000,9.746873,0.335369,1.173216,-0.023782,0.001973,0.006026
3.270000,9.643778,0.326679,1.190632,-0.024301,0.001661,0.006586
3.280000,9.753376,0.200107,1.184268,-0.024854,0.001128,0.007158
3.290000,9.960480,0.131454,1.206008,-0.024547,0.001588,0.007005
3.300000,9.798057,0.211104,1.198899,-0.024317,0.002032,0.006721
3.310000,9.704700,0.237432,1.221465,-0.024570,0.002370,0.005623
3.320000,9.761363,0.315124,1.134610,-0.024476,0.002068,0.005098
3.330000,9.800663,0.218885,1.167135,-0.023857,0.001626,0.005736
3.340000,9.726576,0.160694,1.170988,-0.023540,0.003106,0.006371
3.350000,9.711807,0.162173,1.230536,-0.024819,0.001184,0.005980
3.360000,9.790626,0.272813,1.165914,-0.024435,0.000840,0.006261
3.370000,9.815736,0.265245,1.162083,-0.023976,0.000611,0.006569
3.380000,9.832689,0.239723,1.167486,-0.023976,0.000611,0.006621
3.390000,9.849642,0.214201,1.172888,-0.023976,0.000611,0.006672
3.400000,9.800026,0.264740,1.160976,-0.023777,0.001038,0.006833
3.410000,9.610796,0.229134,1.212870,-0.023732,0.002077,0.006780
3.420000,9.753458,0.174403,1.178817,-0.023675,0.001538,0.006869
3.430000,9.905646,0.162247,1.214324,-0.023518,0.000201,0.006253
3.440000,9.706069,0.203947,1.207642,-0.023641,0.003390,0.006093
3.450000,9.677060,0.226099,1.247809,-0.024621,0.001225,0.006193
3.460000,9.782146,0.226767,1.186155,-0.023784,0.002478,0.007291
3.470000,9.831250,0.161079,1.213112,-0.023377,0.001362,0.006532
3.480000,9.717600,0.114669,1.160124,-0.023928,0.001835,0.005902
3.490000,9.683329,0.174693,1.210646,-0.024302,0.002217,0.005577
3.500000,9.754034,0.253370,1.162470,-0.024357,0.002438,0.005798
3.510000,9.786207,0.254689,1.159809,-0.024412,0.002659,0.006019
3.520000,9.783064,0.185108,1.198864,-0.024401,0.002581,0.006041
3.530000,9.779922,0.115528,1.237919,-0.024344,0.002297,0.005928
3.540000,9.718393,0.229642,1.192780,-0.024287,0.002013,0.005814
3.550000,9.710976,0.280193,1.162511,-0.024752,0.001421,0.006650
3.560000,9.797551,0.191514,1.175137,-0.024761,0.000974,0.006894
3.570000,9.825883,0.152653,1.180945,-0.024114,0.000759,0.006246
3.580000,9.771628,0.184434,1.177086,-0.023652,0.000592,0.005877
3.590000,9.717374,0.216215,1.173227,-0.023594,0.000534,0.006112
3.600000,9.731428,0.260030,1.167819,-0.023535,0.000475,0.006347
3.610000,9.745645,0.229631,1.172542,-0.023632,0.000430,0.005872
3.620000,9.735613,0.102923,1.190378,-0.023792,0.000390,0.005115
3.630000,9.748568,0.144299,1.188638,-0.023951,0.000350,0.004357
3.640000,9.766063,0.218865,1.183033,-0.024111,0.000310,0.003600
3.650000,9.783558,0.293430,1.177427,-0.023726,0.000843,0.003849
3.660000,9.745831,0.210891,1.206162,-0.023270,0.001451,0.004229
3.670000,9.817870,0.187721,1.210905,-0.023731,0.001589,0.004340
3.680000,9.745488,0.346978,1.162145,-0.023418,0.001622,0.005456
3.690000,9.616394,0.382351,1.144874,-0.023549,0.001098,0.006110
3.700000,9.586652,0.261096,1.220830,-0.023565,0.000883,0.006750
3.710000,9.754056,0.183756,1.188506,-0.023239,0.002233,0.006584
3.720000,9.756441,0.205297,1.169757,-0.024643,0.001189,0.005539
3.730000,9.621046,0.284848,1.216543,-0.024285,0.002148,0.006558
3.740000,9.708682,0.332035,1.123872,-0.024282,0.001854,0.007136
3.750000,9.868192,0.163203,1.202024,-0.023671,0.000091,0.006634
3.760000,9.769197,0.068258,1.200674,-0.023671,0.001835,0.006024
3.770000,9.736464,0.101413,1.212213,-0.023859,0.002776,0.005651
3.780000,9.713294,0.153057,1.225613,-0.024345,0.002452,0.005651
3.790000,9.787080,0.362640,1.181073,-0.024155,0.002219,0.006299
3.800000,9.745424,0.094459,1.217315,-0.024024,0.001785,0.006884
3.810000,9.850859,0.142180,1.208169,-0.024085,0.001934,0.006510
3.820000,9.805208,0.240276,1.196167,-0.023891,0.002376,0.006372
3.830000,9.680987,0.316411,1.174128,-0.024412,0.001855,0.006632
3.840000,9.687672,0.204413,1.198161,-0.023628,0.002639,0.006720
3.850000,9.869266,0.123924,1.215783,-0.023514,0.002105,0.005877
3.860000,9.878303,0.115780,1.235732,-0.024239,0.000867,0.004685
3.870000,9.742139,0.175644,1.183674,-0.024861,0.002319,0.004409
3.880000,9.734685,0.263524,1.149935,-0.025483,0.003771,0.004132
3.890000,9.797626,0.225570,1.179300,-0.024202,0.003955,0.004603
3.900000,9.776422,0.135169,1.194219,-0.022856,0.004097,0.005099
3.910000,9.750046,0.157613,1.185822,-0.023717,0.001793,0.004990
3.920000,9.821520,0.293354,1.187991,-0.024620,0.000795,0.005506
3.930000,9.746258,0.237772,1.207062,-0.024088,0.002402,0.005617
3.940000,9.708356,0.139591,1.235217,-0.023970,0.002097,0.004887
3.950000,9.769872,0.150939,1.176890,-0.024809,0.002412,0.004887
3.960000,9.721921,0.211644,1.147813,-0.024693,0.001895,0.005585
3.970000,9.673969,0.272348,1.118736,-0.024472,0.001286,0.006361
3.980000,9.663956,0.272630,1.125339,-0.024304,0.000814,0.006991
3.990000,9.669994,0.247346,1.147038,-0.024460,0.001165,0.006757
4.000000,9.676031,0.222062,1.168737,-0.024616,0.001516,0.006523
4.010000,9.690978,0.223926,1.179114,-0.024773,0.001868,0.006289
4.020000,9.713845,0.249925,1.179427,-0.024863,0.002093,0.006131
4.030000,9.736711,0.275924,1.179741,-0.024733,0.001898,0.006228
4.040000,9.759578,0.301923,1.180054,-0.024603,0.001704,0.006326
4.050000,9.782444,0.327922,1.180367,-0.024473,0.001509,0.006423
4.060000,9.805311,0.353921,1.180680,-0.024343,0.001314,0.006521
4.070000,9.769975,0.204136,1.227294,-0.022852,0.002527,0.007296
4.080000,9.771668,0.109842,1.258524,-0.023813,0.001143,0.006641
4.090000,9.785961,0.195214,1.191767,-0.023757,0.001538,0.007036
4.100000,9.687444,0.258567,1.175202,-0.023700,0.001933,0.007431
4.110000,9.630570,0.276543,1.177528,-0.023846,0.001556,0.007752
4.120000,9.747702,0.158064,1.218402,-0.024073,0.000611,0.008081
4.130000,9.901348,0.116010,1.192047,-0.023824,0.000626,0.008682
4.140000,9.913415,0.160416,1.206527,-0.023824,0.001848,0.006849
4.150000,9.716439,0.271685,1.205692,-0.023800,0.003031,0.005069
4.160000,9.773882,0.246329,1.192273,-0.023614,0.001975,0.006004
4.170000,9.881765,0.107394,1.202206,-0.023899,0.001911,0.006415
4.180000,9.693632,0.065467,1.224100,-0.023799,0.003338,0.005545
4.190000,9.689873,0.262601,1.161230,-0.023687,0.002691,0.005482
4.200000,9.791812,0.360589,1.162995,-0.023546,0.001471,0.004373
4.210000,9.736201,0.193432,1.170290,-0.023932,0.002531,0.005086
4.220000,9.790031,0.062663,1.245981,-0.024711,0.000974,0.006514
4.230000,9.835151,0.143441,1.181322,-0.023824,0.002974,0.005787
4.240000,9.745058,0.320688,1.179496,-0.023789,0.000996,0.006506
4.250000,9.607908,0.291403,1.167829,-0.023033,0.003571,0.005917
4.260000,9.760883,0.162104,1.191796,-0.023258,0.001671,0.006854
4.270000,9.908429,0.115091,1.190877,-0.024150,0.001571,0.007047
4.280000,9.799773,0.168576,1.201570,-0.024382,0.002860,0.006326
4.290000,9.644795,0.303241,1.189855,-0.024223,0.002816,0.005274
4.300000,9.756594,0.288013,1.168664,-0.023855,0.001634,0.005253
4.310000,9.825514,0.169483,1.183864,-0.024039,0.002170,0.005836
4.320000,9.709832,0.059269,1.239689,-0.024129,0.002690,0.006222
4.330000,9.726872,0.198852,1.196975,-0.023833,0.002551,0.005570
4.340000,9.809639,0.373482,1.171015,-0.023668,0.001994,0.005192
4.350000,9.707050,0.309501,1.168809,-0.022825,0.004805,0.005051
4.360000,9.751548,0.100554,1.239596,-0.022832,0.003360,0.005422
4.370000,9.824270,0.139290,1.199804,-0.023381,0.003314,0.005926
4.380000,9.847602,0.254701,1.223136,-0.023468,0.003051,0.005750
4.390000,9.651573,0.314850,1.174972,-0.022888,0.003787,0.005478
4.400000,9.656016,0.229538,1.216294,-0.023698,0.002674,0.006288
4.410000,9.855833,0.142138,1.174912,-0.023494,0.001712,0.006856
4.420000,9.822001,0.153492,1.222892,-0.024223,0.001173,0.006520
4.430000,9.694184,0.234969,1.221289,-0.024282,0.002294,0.006162
4.440000,9.736080,0.277540,1.202222,-0.024282,0.001137,0.005390
4.450000,9.818434,0.194299,1.173949,-0.023314,0.002259,0.005524
4.460000,9.681056,0.110750,1.219179,-0.023466,0.002109,0.005329
4.470000,9.707013,0.220367,1.168365,-0.024046,0.001152,0.005693
4.480000,9.839040,0.309233,1.212502,-0.024409,0.000649,0.006223
4.490000,9.739827,0.246375,1.176949,-0.023687,0.003004,0.006112
4.500000,9.764965,0.211181,1.172217,-0.023546,0.002678,0.005983
4.510000,9.789764,0.178251,1.168082,-0.023418,0.002294,0.005855
4.520000,9.796387,0.266555,1.195898,-0.023448,0.001807,0.006382
4.530000,9.666148,0.270603,1.168983,-0.023808,0.003787,0.007422
4.540000,9.701887,0.212089,1.201918,-0.023742,0.002990,0.007156
4.550000,9.830525,0.164605,1.166014,-0.023676,0.002193,0.006890
4.560000,9.867472,0.172283,1.174824,-0.023485,0.002883,0.006500
4.570000,9.642081,0.244796,1.195035,-0.023478,0.002763,0.006261
4.580000,9.780167,0.238328,1.203818,-0.023755,0.001284,0.006261
4.590000,9.807013,0.185986,1.206744,-0.023912,0.001064,0.005928
4.600000,9.705115,0.150640,1.211162,-0.023784,0.001961,0.004968
4.610000,9.659452,0.195880,1.186446,-0.023710,0.002847,0.004143
4.620000,9.776648,0.318739,1.155385,-0.023976,0.002982,0.004807
4.630000,9.788132,0.253290,1.173046,-0.023865,0.001803,0.005762
4.640000,9.758794,0.154057,1.229942,-0.023709,0.001336,0.005918
4.650000,9.763013,0.094242,1.278262,-0.023619,0.001445,0.005990
4.660000,9.795578,0.107246,1.267481,-0.023551,0.001741,0.006036
4.670000,9.828143,0.120250,1.256701,-0.023483,0.002037,0.006081
4.680000,9.860708,0.133253,1.245920,-0.023415,0.002333,0.006127
4.690000,9.893272,0.146257,1.235139,-0.023346,0.002629,0.006172
4.700000,9.925837,0.159261,1.224358,-0.023278,0.002924,0.006218
4.710000,9.761993,0.252471,1.214925,-0.023236,0.003143,0.006257
4.720000,9.653667,0.313341,1.202277,-0.023752,0.001698,0.006154
4.730000,9.766629,0.250994,1.178478,-0.023519,0.000938,0.006436
4.740000,9.903642,0.110506,1.202781,-0.023014,0.000799,0.006671
4.750000,9.864453,0.211186,1.190065,-0.023446,0.000943,0.005854
4.760000,9.825265,0.311866,1.177350,-0.023879,0.001087,0.005038
4.770000,9.785702,0.389479,1.165359,-0.024296,0.001246,0.004339
4.780000,9.743769,0.321571,1.157937,-0.024511,0.001603,0.005267
4.790000,9.801025,0.166065,1.154782,-0.024725,0.001960,0.006195
4.800000,9.856952,0.198695,1.178803,-0.024740,0.001370,0.006173
4.810000,9.648148,0.350335,1.124178,-0.024039,0.002405,0.006371
4.820000,9.626742,0.215739,1.219817,-0.024585,0.000315,0.006418
4.830000,9.757201,0.158881,1.188772,-0.024512,0.000682,0.006565
4.840000,9.881135,0.121202,1.196561,-0.024438,0.001050,0.006712
4.850000,9.915758,0.132478,1.238519,-0.023690,0.003365,0.006090
4.860000,9.788492,0.178809,1.217406,-0.023765,0.002763,0.006015
4.870000,9.787296,0.270354,1.154567,-0.023849,0.002214,0.005943
4.880000,9.718864,0.126865,1.204236,-0.023968,0.001858,0.005884
4.890000,9.724886,0.146372,1.214217,-0.024087,0.001502,0.005824
4.900000,9.799466,0.315966,1.187654,-0.024129,0.000543,0.005388
4.910000,9.737920,0.326955,1.177020,-0.023795,0.002158,0.006084
4.920000,9.722546,0.167361,1.256297,-0.023887,0.001173,0.005982
4.930000,9.802448,0.105642,1.188817,-0.024195,-0.000634,0.005803
4.940000,9.859357,0.259997,1.241405,-0.023728,0.000177,0.005942
4.950000,9.677198,0.320475,1.159587,-0.023829,0.000936,0.006324
4.960000,9.706969,0.262122,1.152814,-0.023999,0.001617,0.006721
4.970000,9.768015,0.186457,1.157174,-0.023963,0.002138,0.006983
4.980000,9.770401,0.165870,1.172267,-0.023712,0.002017,0.006751
4.990000,9.722377,0.192618,1.196583,-0.024235,0.001690,0.006424
5.000000,9.690148,0.243272,1.215698,-0.024726,0.001370,0.006104
5.010000,9.773296,0.222868,1.199991,-0.024342,0.001242,0.005976
5.020000,9.773752,0.160987,1.193053,-0.023525,0.002585,0.006259
5.030000,9.647818,0.123997,1.211047,-0.024104,0.003665,0.004740
5.040000,9.696902,0.178222,1.203567,-0.023664,0.003665,0.005131
5.050000,9.745985,0.232448,1.196088,-0.023224,0.003665,0.005522
5.060000,9.744961,0.187803,1.229469,-0.023249,0.003281,0.005931
5.070000,9.770581,0.151072,1.182370,-0.024275,0.002583,0.006115
5.080000,9.813414,0.237307,1.187037,-0.024221,0.002421,0.006116
5.090000,9.792774,0.260144,1.212902,-0.023915,0.001733,0.006345
5.100000,9.701026,0.189545,1.229460,-0.023369,0.001413,0.005618
5.110000,9.812748,0.136071,1.168346,-0.023432,0.001812,0.005783
5.120000,9.855113,0.189172,1.198281,-0.023950,0.000933,0.006122
5.130000,9.649608,0.247085,1.176437,-0.023612,0.002749,0.006226
5.140000,9.649977,0.264037,1.214763,-0.023142,0.002749,0.005944
5.150000,9.857943,0.183017,1.208656,-0.023282,0.002999,0.005303
5.160000,9.829942,0.132692,1.218242,-0.023137,0.002815,0.005639
5.170000,9.676944,0.166249,1.188972,-0.023853,0.003019,0.005128
5.180000,9.671822,0.278408,1.166724,-0.024665,0.002136,0.005154
5.190000,9.779827,0.336127,1.126058,-0.024893,0.000989,0.004911
5.200000,9.802225,0.270070,1.169007,-0.024893,0.000628,0.005075
5.210000,9.812877,0.280932,1.186970,-0.024893,0.000942,0.005702
5.220000,9.823530,0.291794,1.204934,-0.024893,0.001255,0.006329
5.230000,9.755822,0.323242,1.191402,-0.024537,0.002915,0.006508
5.240000,9.646571,0.269051,1.191666,-0.023987,0.005294,0.006430
5.250000,9.756809,0.140480,1.188530,-0.024490,0.002906,0.007184
5.260000,9.935041,0.125237,1.204509,-0.024477,0.002846,0.007001
5.270000,9.912942,0.164676,1.199470,-0.024341,0.003346,0.006592
5.280000,9.846222,0.207661,1.181155,-0.024205,0.003845,0.006183
5.290000,9.779502,0.250646,1.162840,-0.023949,0.003042,0.005956
5.300000,9.840446,0.200975,1.196913,-0.023587,0.001835,0.005872
5.310000,9.862499,0.158955,1.230948,-0.023380,0.003026,0.005579
5.320000,9.733781,0.201018,1.222726,-0.023467,0.002852,0.005146
5.330000,9.781713,0.360037,1.134898,-0.023489,0.002662,0.004945
5.340000,9.757928,0.298444,1.165817,-0.023417,0.002446,0.005089
5.350000,9.704699,0.150633,1.205943,-0.023540,0.002029,0.005338
5.360000,9.873951,0.180552,1.202418,-0.024158,0.001103,0.005852
5.370000,9.748848,0.325317,1.170616,-0.022824,0.003265,0.006163
5.380000,9.638136,0.283474,1.208322,-0.023078,0.003287,0.006212
5.390000,9.739999,0.186001,1.181366,-0.023098,0.003439,0.006759
5.400000,9.912502,0.137512,1.209202,-0.022952,0.002479,0.006333
5.410000,9.740404,0.194209,1.190462,-0.023512,0.002740,0.006713
5.420000,9.650326,0.226921,1.231708,-0.024348,0.002038,0.006245
5.430000,9.761545,0.278978,1.138499,-0.024210,0.001760,0.005210
5.440000,9.836466,0.178239,1.206376,-0.023698,0.001709,0.005318
5.450000,9.716210,0.110939,1.191269,-0.023895,0.003700,0.005320
5.460000,9.692673,0.129705,1.222757,-0.024270,0.002274,0.005996
5.470000,9.787205,0.309370,1.161153,-0.024229,0.001557,0.006437
5.480000,9.737861,0.262482,1.194093,-0.023251,0.003085,0.005613
5.490000,9.700775,0.145440,1.208886,-0.023945,0.001720,0.005535
5.500000,9.795405,0.155964,1.201456,-0.024377,0.000126,0.006051
5.510000,9.815950,0.251282,1.185592,-0.024429,-0.000084,0.006261
5.520000,9.694902,0.277781,1.202099,-0.023523,0.003784,0.006448
5.530000,9.698192,0.208809,1.195065,-0.023841,0.003512,0.006787
5.540000,9.884139,0.165290,1.188744,-0.024016,0.002363,0.006412
5.550000,9.739589,0.213758,1.166958,-0.023991,0.003918,0.006399
5.560000,9.663017,0.218418,1.230626,-0.023239,0.002796,0.005972
5.570000,9.765004,0.238561,1.152643,-0.024114,0.002017,0.005950
5.580000,9.746687,0.194542,1.158847,-0.023586,0.003149,0.005723
5.590000,9.726255,0.156007,1.168529,-0.023062,0.004265,0.005497
5.600000,9.680187,0.183914,1.220356,-0.023505,0.001828,0.005386
5.610000,9.706365,0.231379,1.193719,-0.023874,0.000916,0.005801
5.620000,9.760010,0.286278,1.137251,-0.024198,0.000916,0.006530
5.630000,9.779768,0.213257,1.201640,-0.023722,0.001756,0.006328
5.640000,9.771865,0.197624,1.198075,-0.022966,0.002890,0.005799
5.650000,9.770703,0.289355,1.178293,-0.023824,0.002518,0.006532
5.660000,9.761008,0.286930,1.176675,-0.023812,0.003120,0.006720
5.670000,9.830461,0.231095,1.186791,-0.023763,0.002074,0.006720
5.680000,9.899914,0.175260,1.196907,-0.023713,0.001028,0.006720
5.690000,9.777889,0.195703,1.170874,-0.023671,0.001063,0.006315
5.700000,9.611741,0.245375,1.202755,-0.022890,0.001730,0.005107
5.710000,9.692271,0.248548,1.171579,-0.023107,0.000905,0.004805
5.720000,9.756496,0.190826,1.162284,-0.023837,0.001012,0.004900
5.730000,9.752698,0.119198,1.195171,-0.024192,0.001545,0.005255
5.740000,9.656968,0.225320,1.231923,-0.024740,0.001563,0.004911
5.750000,9.723878,0.336422,1.119754,-0.024740,0.001909,0.005141
5.760000,9.776429,0.309965,1.161069,-0.024029,0.002696,0.005508
5.770000,9.787378,0.217336,1.205128,-0.023384,0.003096,0.005784
5.780000,9.758792,0.094691,1.240607,-0.023453,0.002133,0.005716
5.790000,9.734568,0.240035,1.186946,-0.023518,0.001273,0.005639
5.800000,9.719320,0.341284,1.146825,-0.023518,0.002243,0.005423
5.810000,9.751490,0.209577,1.178238,-0.023650,0.002200,0.005939
5.820000,9.870788,0.131751,1.204916,-0.023733,0.001650,0.006689
5.830000,9.912962,0.136290,1.222041,-0.023366,0.001694,0.006467
5.840000,9.734966,0.207803,1.229666,-0.023366,0.002203,0.006161
5.850000,9.668872,0.306931,1.171315,-0.023632,0.001226,0.006774
5.860000,9.899679,0.188413,1.235851,-0.023095,0.000061,0.005864
5.870000,9.787611,0.081040,1.193449,-0.023353,0.002787,0.005950
5.880000,9.707584,0.135128,1.246433,-0.023480,0.002332,0.005614
5.890000,9.750376,0.357637,1.137569,-0.023581,0.001696,0.005561
5.900000,9.782066,0.388235,1.173631,-0.023667,0.001102,0.005638
5.910000,9.709316,0.240917,1.176343,-0.023572,0.001865,0.005352
5.920000,9.747201,0.072189,1.240330,-0.023637,0.002410,0.005401
5.930000,9.698608,0.136219,1.236295,-0.023907,0.002680,0.005873
5.940000,9.650015,0.200249,1.232260,-0.024026,0.002815,0.006348
5.950000,9.601423,0.264279,1.228225,-0.023439,0.002327,0.006836
5.960000,9.651736,0.246694,1.209276,-0.023285,0.002464,0.006699
5.970000,9.725675,0.209615,1.186763,-0.023403,0.002995,0.006168
5.980000,9.735632,0.180419,1.189097,-0.023583,0.003474,0.005676
5.990000,9.692227,0.255850,1.155834,-0.023905,0.002488,0.005956
6.000000,9.830523,0.230911,1.199235,-0.023138,0.001712,0.005423
6.010000,9.766864,0.126553,1.205395,-0.023553,0.002819,0.005192
6.020000,9.708045,0.105749,1.250598,-0.023962,0.002601,0.005192
6.030000,9.764247,0.236685,1.189228,-0.024091,0.001718,0.005364
6.040000,9.816677,0.319349,1.188395,-0.023871,0.001938,0.006356
6.050000,9.685253,0.181700,1.172659,-0.023316,0.001983,0.005582
6.060000,9.741731,0.130869,1.192703,-0.024068,0.000856,0.005081
6.070000,9.831564,0.230484,1.166494,-0.023584,0.001728,0.006148
6.080000,9.754228,0.281419,1.185682,-0.022624,0.002624,0.006187
6.090000,9.657029,0.230201,1.225970,-0.023632,0.001940,0.005894
6.100000,9.766593,0.179997,1.191671,-0.024264,0.001687,0.006399
6.110000,9.878587,0.177390,1.202822,-0.024109,0.002631,0.005809
6.120000,9.746846,0.205683,1.212548,-0.024115,0.002804,0.005554
6.130000,9.703510,0.244081,1.172102,-0.024206,0.002109,0.006166
6.140000,9.877340,0.208006,1.207724,-0.023586,0.001431,0.005516
6.150000,9.763561,0.156013,1.165469,-0.023905,0.002262,0.005111
6.160000,9.690751,0.185370,1.209802,-0.023799,0.001926,0.004419
6.170000,9.699745,0.247541,1.202127,-0.023477,0.001494,0.004670
6.180000,9.753367,0.295975,1.141166,-0.023032,0.002117,0.006273
6.190000,9.716478,0.170195,1.198500,-0.023426,0.002498,0.006408
6.200000,9.735812,0.130566,1.228639,-0.023578,0.002596,0.005520
6.210000,9.815029,0.266512,1.176318,-0.023244,0.002459,0.004628
6.220000,9.685124,0.288873,1.189518,-0.023330,0.002657,0.005661
6.230000,9.699870,0.188265,1.224088,-0.023161,0.002953,0.006720
6.240000,9.778995,0.162971,1.198832,-0.024433,0.002358,0.006363
6.250000,9.731057,0.210032,1.177201,-0.023951,0.002090,0.006202
6.260000,9.658211,0.247484,1.184016,-0.023469,0.001822,0.006041
6.270000,9.575336,0.267517,1.223888,-0.023304,0.001756,0.005850
6.280000,9.613811,0.286067,1.202177,-0.023498,0.001917,0.005624
6.290000,9.652285,0.304617,1.180467,-0.023692,0.002079,0.005397
6.300000,9.690760,0.323168,1.158756,-0.023885,0.002240,0.005171
6.310000,9.729235,0.341718,1.137045,-0.024079,0.002402,0.004945
6.320000,9.802302,0.325688,1.183980,-0.023850,0.000908,0.006701
6.330000,9.719155,0.105651,1.200185,-0.023671,0.002748,0.006720
6.340000,9.782277,0.079961,1.236894,-0.023993,0.001281,0.006423
6.350000,9.883077,0.220046,1.182618,-0.024257,0.002205,0.006555
6.360000,9.669808,0.322666,1.147009,-0.023124,0.004206,0.006029
6.370000,9.641457,0.222265,1.215382,-0.023717,0.002337,0.005561
6.380000,9.848036,0.149760,1.224445,-0.023906,0.002525,0.006441
6.390000,9.884963,0.137708,1.206440,-0.024094,0.002714,0.007320
6.400000,9.676388,0.223052,1.192307,-0.024134,0.003477,0.005974
6.410000,9.662667,0.320149,1.150722,-0.023742,0.003419,0.004490
6.420000,9.840147,0.245001,1.166006,-0.023622,0.003983,0.004666
6.430000,9.812246,0.099371,1.171345,-0.023536,0.003469,0.005353
6.440000,9.721507,0.116690,1.227827,-0.023835,0.001564,0.005286
6.450000,9.745666,0.324079,1.173818,-0.024895,0.001338,0.005766
6.460000,9.759338,0.385003,1.195379,-0.024542,0.001265,0.006481
6.470000,9.655706,0.156216,1.229011,-0.024012,0.002208,0.006144
6.480000,9.733752,0.107411,1.230009,-0.023484,0.002009,0.006179
6.490000,9.840502,0.144508,1.211713,-0.022953,0.001706,0.006255
6.500000,9.738352,0.321676,1.157223,-0.022796,0.002904,0.005928
6.510000,9.732527,0.295806,1.163325,-0.022951,0.003251,0.005891
6.520000,9.737864,0.261732,1.171946,-0.023249,0.003085,0.006023
6.530000,9.743201,0.227658,1.180567,-0.023547,0.002920,0.006155
6.540000,9.748538,0.193584,1.189188,-0.023845,0.002754,0.006288
6.550000,9.642067,0.224334,1.252142,-0.024042,0.002658,0.006402
6.560000,9.802529,0.249441,1.195244,-0.023371,0.002426,0.006028
6.570000,9.780121,0.140915,1.207035,-0.023671,0.001928,0.005883
6.580000,9.715533,0.131022,1.209733,-0.023671,0.002138,0.005727
6.590000,9.783183,0.259926,1.169153,-0.023576,0.002554,0.005213
6.600000,9.817208,0.316392,1.179509,-0.023954,0.002575,0.005910
6.610000,9.688798,0.161281,1.199589,-0.023876,0.002696,0.006388
6.620000,9.728274,0.114388,1.200557,-0.023582,0.001175,0.006051
6.630000,9.834006,0.192365,1.183250,-0.023420,0.001356,0.005759
6.640000,9.806070,0.252466,1.176762,-0.023469,0.001939,0.005910
6.650000,9.726718,0.276995,1.192633,-0.023650,0.002391,0.006361
6.660000,9.742859,0.168348,1.191145,-0.023337,0.001998,0.006136
6.670000,9.744074,0.173098,1.147254,-0.022959,0.001494,0.005820
6.680000,9.692019,0.214360,1.122814,-0.023365,0.001047,0.005868
6.690000,9.730875,0.231298,1.112986,-0.024689,0.000669,0.006341
6.700000,9.772345,0.221523,1.117914,-0.023898,0.002476,0.005668
6.710000,9.746522,0.174990,1.142203,-0.023807,0.002178,0.005091
6.720000,9.720699,0.128456,1.166492,-0.023975,0.001281,0.004586
6.730000,9.746395,0.276207,1.156967,-0.024345,0.000458,0.004003
6.740000,9.742107,0.322891,1.153078,-0.025309,0.000865,0.003713
6.750000,9.727397,0.334306,1.151313,-0.024962,0.001592,0.004345
6.760000,9.712687,0.345721,1.149548,-0.024614,0.002318,0.004977
6.770000,9.697977,0.357136,1.147783,-0.024266,0.003045,0.005609
6.780000,9.683267,0.368551,1.146017,-0.023919,0.003772,0.006241
6.790000,9.673511,0.191331,1.233424,-0.024431,0.001694,0.006566
6.800000,9.789451,0.157022,1.210157,-0.024573,0.000571,0.006636
6.810000,9.907517,0.144615,1.229330,-0.024712,-0.000542,0.006706
6.820000,9.659277,0.267918,1.179935,-0.023553,0.003663,0.005702
6.830000,9.653144,0.303133,1.193125,-0.023866,0.002572,0.006151
6.840000,9.834358,0.234892,1.169606,-0.024072,0.002086,0.006309
6.850000,9.870448,0.115434,1.205258,-0.024484,0.001014,0.006212
6.860000,9.717889,0.149335,1.212453,-0.024764,0.002057,0.005932
6.870000,9.693459,0.249128,1.218365,-0.024279,0.001643,0.006263
6.880000,9.750401,0.305772,1.186764,-0.023673,0.001870,0.006566
6.890000,9.735557,0.203353,1.212328,-0.023972,0.001682,0.006871
6.900000,9.773836,0.078556,1.223686,-0.024294,0.003430,0.006731
6.910000,9.872960,0.215890,1.198573,-0.023648,0.003017,0.005965
6.920000,9.700138,0.347459,1.143353,-0.023254,0.002992,0.005935
6.930000,9.631060,0.270911,1.184148,-0.022858,0.003054,0.005956
6.940000,9.756939,0.146019,1.171137,-0.023099,0.002487,0.005814
6.950000,9.943858,0.106862,1.225809,-0.023539,0.000911,0.005782
6.960000,9.709541,0.210460,1.189502,-0.023506,0.002855,0.006062
6.970000,9.630046,0.268846,1.198539,-0.024798,0.002155,0.005795
6.980000,9.766763,0.264376,1.141385,-0.024932,0.000689,0.006490
6.990000,9.842489,0.129684,1.192961,-0.024246,0.001364,0.006476
7.000000,9.737739,0.098319,1.199498,-0.023634,0.002949,0.005783
7.010000,9.735838,0.228233,1.188883,-0.024210,0.001316,0.005167
7.020000,9.777552,0.341716,1.164596,-0.024838,0.001739,0.005188
7.030000,9.708280,0.227347,1.187142,-0.024652,0.000411,0.006966
7.040000,9.705994,0.100015,1.211020,-0.024390,0.001537,0.006791
7.050000,9.840516,0.164407,1.215051,-0.024502,0.001961,0.006414
7.060000,9.779053,0.304188,1.193701,-0.025308,0.002313,0.006534
7.070000,9.649443,0.282675,1.225526,-0.024731,0.003216,0.006181
7.080000,9.736876,0.195011,1.172835,-0.024030,0.004196,0.006387
7.090000,9.926516,0.141762,1.183647,-0.023392,0.001499,0.005976
7.100000,9.770476,0.218344,1.185616,-0.023679,0.003952,0.005773
7.110000,9.641350,0.236262,1.206991,-0.024129,0.002772,0.004239
7.120000,9.773245,0.263314,1.174778,-0.023923,0.001759,0.005191
7.130000,9.849594,0.200279,1.217595,-0.023031,0.003210,0.004768
7.140000,9.729310,0.170819,1.215272,-0.023895,0.003744,0.006006
7.150000,9.721522,0.214053,1.208646,-0.025033,0.001870,0.005595
7.160000,9.822717,0.289182,1.168164,-0.024243,0.002065,0.005871
7.170000,9.779455,0.248850,1.183113,-0.023654,0.002221,0.006414
7.180000,9.693817,0.170179,1.192250,-0.023871,0.002859,0.006414
7.190000,9.760453,0.179720,1.181735,-0.023967,0.001227,0.006414
7.200000,9.802064,0.289886,1.153469,-0.022763,0.001925,0.006766
7.210000,9.692482,0.234368,1.220747,-0.023082,0.001593,0.005961
7.220000,9.761646,0.186243,1.223263,-0.024008,0.001222,0.005821
7.230000,9.872515,0.149381,1.208802,-0.024275,0.001222,0.006287
7.240000,9.735265,0.233820,1.156791,-0.023881,0.003712,0.005598
7.250000,9.627190,0.243292,1.193820,-0.024269,0.003169,0.005498
7.260000,9.727708,0.241574,1.144778,-0.024456,0.002201,0.006550
7.270000,9.915311,0.151051,1.192845,-0.024435,0.000666,0.007456
7.280000,9.785619,0.141456,1.169159,-0.023674,0.003350,0.007179
7.290000,9.666950,0.164236,1.226375,-0.023407,0.002303,0.005328
7.300000,9.752538,0.297299,1.163328,-0.024016,0.000922,0.005575
7.310000,9.813727,0.252612,1.223405,-0.023687,-0.000535,0.005409
7.320000,9.751082,0.134553,1.232193,-0.024038,0.002106,0.005813
7.330000,9.778374,0.160121,1.202569,-0.024183,0.001770,0.005601
7.340000,9.772240,0.277465,1.145878,-0.023992,0.002535,0.005505
7.350000,9.674127,0.279885,1.164607,-0.023043,0.002137,0.005227
7.360000,9.732026,0.170285,1.207060,-0.023420,0.001621,0.005810
7.370000,9.876107,0.111824,1.222707,-0.023671,0.001143,0.006706
7.380000,9.816993,0.151737,1.225443,-0.023345,0.001571,0.006898
7.390000,9.564711,0.270019,1.223871,-0.021669,0.003367,0.005462
7.400000,9.653437,0.319208,1.146984,-0.023873,0.001310,0.006309
7.410000,9.878555,0.174603,1.192633,-0.023710,0.001209,0.006554
7.420000,9.819516,0.108329,1.196004,-0.023399,0.002987,0.006016
7.430000,9.730684,0.117913,1.236919,-0.023725,0.002335,0.005120
7.440000,9.745090,0.326712,1.152324,-0.023939,0.001492,0.004656
7.450000,9.791017,0.322114,1.185745,-0.023768,0.001016,0.005401
7.460000,9.719932,0.239121,1.168425,-0.023585,0.002847,0.005584
7.470000,9.798308,0.124758,1.212676,-0.023876,0.001122,0.006188
7.480000,9.822570,0.250905,1.170213,-0.023645,0.001582,0.005414
7.490000,9.668914,0.307924,1.162484,-0.023420,0.002914,0.005786
7.500000,9.660246,0.235767,1.197589,-0.023824,0.003071,0.006109
7.510000,9.882055,0.135933,1.200980,-0.024020,0.001844,0.006207
7.520000,9.913588,0.132210,1.195612,-0.024586,0.001794,0.005461
7.530000,9.878257,0.155875,1.193945,-0.025242,0.001958,0.004314
7.540000,9.662867,0.324769,1.137115,-0.024370,0.001845,0.005524
7.550000,9.826896,0.262529,1.173139,-0.024978,0.000441,0.005929
7.560000,9.772488,0.126022,1.167898,-0.022832,0.002855,0.005223
7.570000,9.722798,0.094683,1.254681,-0.024409,0.001859,0.005831
7.580000,9.787620,0.276829,1.158177,-0.025630,0.000621,0.006103
7.590000,9.777916,0.312345,1.193122,-0.023634,0.002009,0.005837
7.600000,9.681626,0.173419,1.189392,-0.023565,0.003217,0.006367
7.610000,9.757689,0.104630,1.217741,-0.023845,0.001643,0.006029
7.620000,9.775523,0.170074,1.176568,-0.023646,0.002510,0.005812
7.630000,9.680095,0.242405,1.175352,-0.022485,0.004134,0.006199
7.640000,9.684288,0.231630,1.196217,-0.022947,0.003218,0.005780
7.650000,9.856071,0.169928,1.190972,-0.024800,0.001161,0.005375
7.660000,9.848993,0.168509,1.186272,-0.024251,0.001616,0.005998
7.670000,9.659217,0.186496,1.227486,-0.024136,0.002334,0.004983
7.680000,9.704859,0.272164,1.169624,-0.024154,0.002060,0.005603
7.690000,9.855653,0.233072,1.216349,-0.023439,0.001018,0.005527
7.700000,9.738920,0.172753,1.170154,-0.024064,0.002033,0.005917
7.710000,9.697239,0.136782,1.250659,-0.024538,-0.000181,0.004728
7.720000,9.788941,0.281661,1.139438,-0.023878,0.002259,0.004134
7.730000,9.829487,0.299525,1.197863,-0.024437,0.000500,0.004452
7.740000,9.708135,0.198491,1.181006,-0.023379,0.003753,0.005572
7.750000,9.739754,0.156659,1.207725,-0.022335,0.003360,0.006338
7.760000,9.780539,0.253606,1.167734,-0.023145,0.002259,0.005734
7.770000,9.704291,0.283800,1.200077,-0.024052,0.000878,0.005358
7.780000,9.685671,0.222386,1.229461,-0.023857,0.000695,0.006015
7.790000,9.768531,0.175255,1.227561,-0.024601,0.000881,0.006480
7.800000,9.823709,0.200209,1.166067,-0.022903,0.002431,0.005890
7.810000,9.628454,0.251860,1.187687,-0.023886,0.002001,0.004367
7.820000,9.706386,0.269231,1.132822,-0.024043,0.001826,0.005073
7.830000,9.876658,0.180438,1.201308,-0.024153,0.000789,0.005803
7.840000,9.775859,0.120955,1.177670,-0.024025,0.002521,0.005803
7.850000,9.668774,0.169709,1.253708,-0.024121,0.001899,0.004215
7.860000,9.728703,0.331808,1.156330,-0.023369,0.003506,0.004732
7.870000,9.811073,0.317011,1.214530,-0.024097,0.000832,0.005587
7.880000,9.748294,0.139486,1.203666,-0.023733,0.004298,0.006859
7.890000,9.781552,0.119654,1.220817,-0.024098,0.001835,0.006018
7.900000,9.796845,0.255468,1.135039,-0.023903,0.003164,0.006726
7.910000,9.675591,0.304525,1.158084,-0.023724,0.003144,0.005998
7.920000,9.680051,0.204033,1.205311,-0.023638,0.002319,0.005932
7.930000,9.868875,0.107026,1.234037,-0.023155,0.001576,0.006286
7.940000,9.877645,0.139979,1.223402,-0.022985,0.001538,0.006344
7.950000,9.651125,0.243815,1.229731,-0.024227,0.001779,0.006361
7.960000,9.652411,0.314648,1.156350,-0.023836,0.002233,0.006310
7.970000,9.840451,0.201220,1.170318,-0.023102,0.000706,0.005747
7.980000,9.820798,0.090025,1.170442,-0.023426,0.002807,0.004888
7.990000,9.715377,0.117831,1.242180,-0.024167,0.001308,0.004345
8.000000,9.731803,0.266907,1.174480,-0.024934,0.001568,0.004113
8.010000,9.795670,0.360524,1.216012,-0.024737,0.000926,0.004736
8.020000,9.699799,0.157374,1.197396,-0.023678,0.004709,0.005493
8.030000,9.766662,0.082408,1.257061,-0.023935,0.001346,0.007109
8.040000,9.850697,0.150091,1.179840,-0.023589,0.002385,0.006531
8.050000,9.703377,0.324467,1.157492,-0.024396,0.002158,0.005683
8.060000,9.609258,0.270648,1.178981,-0.023976,0.002925,0.006805
8.070000,9.787575,0.184557,1.196029,-0.023976,0.000319,0.006568
8.080000,9.936458,0.126535,1.203337,-0.024116,-0.000488,0.006388
8.090000,9.853445,0.146427,1.191861,-0.024000,0.001950,0.006156
8.100000,9.657097,0.284868,1.191670,-0.022912,0.002756,0.006863
8.110000,9.763406,0.300257,1.159066,-0.023900,0.003358,0.005116
8.120000,9.810386,0.199711,1.171610,-0.023777,0.001578,0.005110
8.130000,9.745159,0.113894,1.164171,-0.023010,0.003003,0.004659
8.140000,9.713410,0.087382,1.219813,-0.023778,0.002850,0.005350
8.150000,9.775674,0.247672,1.233288,-0.024124,0.003002,0.006025
8.160000,9.761661,0.300871,1.199196,-0.023663,0.003739,0.006669
8.170000,9.703265,0.175786,1.200810,-0.023786,0.003649,0.005747
8.180000,9.765131,0.199410,1.204151,-0.024177,0.003180,0.004105
8.190000,9.783993,0.292724,1.164519,-0.023753,0.002450,0.004572
8.200000,9.616913,0.239646,1.190352,-0.023361,0.001808,0.005646
8.210000,9.741413,0.187228,1.196622,-0.023949,0.001710,0.006234
8.220000,9.881937,0.167733,1.213680,-0.024730,0.001852,0.005470
8.230000,9.805141,0.191729,1.205916,-0.025016,0.002022,0.005135
8.240000,9.684555,0.219239,1.247254,-0.024619,0.002101,0.006007
8.250000,9.789943,0.221160,1.230787,-0.024435,0.001347,0.006368
8.260000,9.851469,0.210296,1.202829,-0.024435,-0.000134,0.006280
8.270000,9.725807,0.156036,1.151412,-0.024219,0.001483,0.006261
8.280000,9.674652,0.166677,1.201709,-0.024082,0.002150,0.006028
8.290000,9.761271,0.230235,1.218302,-0.024013,0.001943,0.005681
8.300000,9.844009,0.289773,1.234114,-0.024050,0.002713,0.005351
8.310000,9.738391,0.153690,1.234554,-0.023722,0.002908,0.005367
8.320000,9.783989,0.223251,1.168666,-0.024252,0.000989,0.004914
8.330000,9.748436,0.323793,1.152711,-0.022904,0.004223,0.006127
8.340000,9.657074,0.254606,1.184644,-0.023543,0.002780,0.006712
8.350000,9.701826,0.192161,1.191839,-0.024024,0.001337,0.006538
8.360000,9.865037,0.130833,1.190583,-0.024166,0.000630,0.006155
8.370000,9.714073,0.243570,1.190712,-0.023647,0.002314,0.006414
8.380000,9.629314,0.249617,1.235116,-0.023972,0.001995,0.006386
8.390000,9.817641,0.194584,1.229398,-0.023944,0.002050,0.006219
8.400000,9.890408,0.190475,1.220341,-0.023916,0.002106,0.006051
8.410000,9.870191,0.227340,1.208598,-0.023888,0.002162,0.005884
8.420000,9.849974,0.264206,1.196855,-0.023860,0.002218,0.005717
8.430000,9.829757,0.301071,1.185111,-0.023832,0.002274,0.005549
8.440000,9.792200,0.257584,1.176300,-0.022316,0.001835,0.005204
8.450000,9.754231,0.131277,1.212649,-0.024357,0.002107,0.006429
8.460000,9.810732,0.206310,1.181831,-0.022744,0.003272,0.006000
8.470000,9.736792,0.329759,1.167364,-0.022602,0.001546,0.004596
8.480000,9.601756,0.292917,1.174954,-0.024329,0.002716,0.005677
8.490000,9.699163,0.202004,1.194841,-0.025021,0.002221,0.006073
8.500000,9.931974,0.079622,1.204891,-0.025248,0.001895,0.006133
8.510000,9.890443,0.082118,1.213377,-0.025052,0.001723,0.005887
8.520000,9.848913,0.084613,1.221863,-0.024855,0.001552,0.005642
8.530000,9.807383,0.087109,1.230349,-0.024659,0.001380,0.005396
8.540000,9.765853,0.089605,1.238834,-0.024462,0.001208,0.005151
8.550000,9.724323,0.092101,1.247320,-0.024266,0.001036,0.004905
8.560000,9.702241,0.133103,1.233059,-0.024017,0.001252,0.004902
8.570000,9.739958,0.289973,1.149777,-0.023649,0.002357,0.005454
8.580000,9.709165,0.247858,1.169703,-0.023281,0.003461,0.006007
8.590000,9.723357,0.129201,1.241938,-0.023213,0.002681,0.006327
8.600000,9.785919,0.113102,1.221295,-0.023146,0.002224,0.006347
8.610000,9.838450,0.220671,1.182733,-0.023328,0.002031,0.006261
8.620000,9.618859,0.319335,1.154383,-0.023560,0.003809,0.005866
8.630000,9.649804,0.241875,1.182122,-0.023016,0.003320,0.005602
8.640000,9.890336,0.127240,1.173045,-0.023803,0.001254,0.006397
8.650000,9.853579,0.121656,1.181048,-0.023847,0.001222,0.006182
8.660000,9.816821,0.116073,1.189050,-0.023871,0.001222,0.005947
8.670000,9.780064,0.110489,1.197053,-0.023894,0.001222,0.005711
8.680000,9.743306,0.104906,1.205056,-0.023918,0.001222,0.005476
8.690000,9.706549,0.099323,1.213059,-0.023941,0.001222,0.005241
8.700000,9.669792,0.093739,1.221062,-0.023965,0.001222,0.005006
8.710000,9.737795,0.250025,1.157469,-0.023822,0.001273,0.004758
8.720000,9.729719,0.278291,1.164872,-0.023507,0.001378,0.004496
8.730000,9.742779,0.244636,1.165141,-0.023192,0.001483,0.004233
8.740000,9.767972,0.175435,1.161314,-0.023005,0.002021,0.004562
8.750000,9.805665,0.207051,1.187992,-0.022911,0.002872,0.005319
8.760000,9.812702,0.267103,1.208859,-0.023618,0.002394,0.006157
8.770000,9.657406,0.289707,1.163171,-0.023077,0.002038,0.006067
8.780000,9.782200,0.168194,1.187280,-0.023304,0.001673,0.005725
8.790000,9.885865,0.193913,1.187520,-0.024042,0.001391,0.005634
8.800000,9.873825,0.192611,1.190448,-0.024259,0.001445,0.005580
8.810000,9.861786,0.191310,1.193377,-0.024477,0.001500,0.005525
8.820000,9.849746,0.190008,1.196305,-0.024269,0.002100,0.005371
8.830000,9.789727,0.178011,1.201176,-0.023852,0.002818,0.005276
8.840000,9.652820,0.148873,1.209159,-0.023941,0.002550,0.005544
8.850000,9.718453,0.257263,1.176188,-0.024339,0.001614,0.005339
8.860000,9.778819,0.253397,1.182433,-0.024943,0.000233,0.004822
8.870000,9.755710,0.158214,1.234436,-0.024371,0.000450,0.006308
8.880000,9.735836,0.134739,1.197185,-0.024129,0.002001,0.006658
8.890000,9.770511,0.255140,1.197378,-0.023949,0.001428,0.006387
8.900000,9.705201,0.318647,1.172142,-0.023602,0.002086,0.006630
8.910000,9.673427,0.264004,1.181123,-0.023366,0.003432,0.006559
8.920000,9.742460,0.171989,1.224935,-0.023414,0.003103,0.005787
8.930000,9.817111,0.134378,1.195588,-0.023600,0.003288,0.005725
8.940000,9.799155,0.154123,1.168766,-0.023785,0.003474,0.005663
8.950000,9.632506,0.277108,1.184133,-0.023824,0.002075,0.005651
8.960000,9.799761,0.196087,1.178532,-0.023824,0.001605,0.005266
8.970000,9.756815,0.166202,1.196463,-0.023824,0.001981,0.004640
8.980000,9.713869,0.136317,1.214394,-0.023791,0.002208,0.004189
8.990000,9.716854,0.159682,1.206325,-0.023601,0.001735,0.004568
9.000000,9.764720,0.235078,1.172850,-0.023560,0.001652,0.004859
9.010000,9.767687,0.209209,1.188857,-0.023634,0.001874,0.005081
9.020000,9.739696,0.113521,1.238979,-0.023796,0.001944,0.005566
9.030000,9.760904,0.165923,1.225946,-0.024044,0.001861,0.006311
9.040000,9.798317,0.267100,1.192112,-0.023800,0.002490,0.005581
9.050000,9.626342,0.330470,1.130486,-0.023936,0.001872,0.005012
9.060000,9.786883,0.177225,1.153472,-0.024435,0.001217,0.005966
9.070000,9.796687,0.152104,1.165398,-0.024303,0.002434,0.006489
9.080000,9.714509,0.205164,1.170575,-0.023989,0.003141,0.005939
9.090000,9.718092,0.255840,1.153100,-0.023686,0.002550,0.005788
9.100000,9.740188,0.280800,1.140151,-0.023766,0.002633,0.005993
9.110000,9.731945,0.198159,1.175723,-0.024034,0.002644,0.006214
9.120000,9.723703,0.115519,1.211295,-0.024531,0.002395,0.006462
9.130000,9.732214,0.082867,1.228973,-0.024965,0.002021,0.006387
9.140000,9.763105,0.116991,1.222747,-0.025351,0.001557,0.006078
9.150000,9.793997,0.151115,1.216521,-0.025042,0.001323,0.006187
9.160000,9.824888,0.185239,1.210295,-0.024280,0.001238,0.006568
9.170000,9.855779,0.219363,1.204069,-0.023518,0.001154,0.006949
9.180000,9.810324,0.270213,1.192108,-0.022756,0.001069,0.007330
9.190000,9.662572,0.343475,1.172462,-0.023051,0.001365,0.006343
9.200000,9.738099,0.204601,1.178368,-0.023091,0.001161,0.005925
9.210000,9.898552,0.133125,1.196071,-0.022823,0.000357,0.006193
9.220000,9.821914,0.164864,1.197606,-0.023480,0.001603,0.005847
9.230000,9.650562,0.241131,1.222672,-0.025325,0.000380,0.004695
9.240000,9.762729,0.292592,1.132113,-0.024547,0.001228,0.005777
9.250000,9.844133,0.190915,1.204668,-0.021852,0.001956,0.006252
9.260000,9.678825,0.104779,1.163481,-0.023584,0.002121,0.005855
9.270000,9.680379,0.182005,1.209956,-0.025189,0.001074,0.005003
9.280000,9.831664,0.289310,1.176282,-0.024956,0.001190,0.004072
9.290000,9.832634,0.306271,1.184521,-0.023933,0.002181,0.005257
9.300000,9.663240,0.145200,1.228784,-0.023797,0.003201,0.005398
9.310000,9.678511,0.200697,1.193028,-0.023864,0.003038,0.005586
9.320000,9.693782,0.256193,1.157272,-0.023912,0.002652,0.005876
9.330000,9.709053,0.311690,1.121516,-0.023961,0.002265,0.006166
9.340000,9.648087,0.194533,1.212772,-0.023435,0.003005,0.006370
9.350000,9.876389,0.160898,1.193439,-0.022399,0.003197,0.005926
9.360000,9.793748,0.211156,1.193628,-0.022099,0.003137,0.005333
9.370000,9.717431,0.240980,1.177191,-0.023216,0.003347,0.004880
9.380000,9.763515,0.239353,1.167703,-0.023405,0.002591,0.004438
9.390000,9.772996,0.218968,1.158620,-0.023594,0.001834,0.003997
9.400000,9.716003,0.164516,1.150270,-0.023180,0.002101,0.004064
9.410000,9.641245,0.219014,1.188037,-0.023429,0.001135,0.004726
9.420000,9.815570,0.334896,1.147510,-0.024471,0.001032,0.004149
9.430000,9.850693,0.290579,1.199434,-0.023063,0.002196,0.004701
9.440000,9.830511,0.298449,1.201654,-0.022498,0.001836,0.005728
9.450000,9.810330,0.306320,1.203874,-0.021933,0.001476,0.006755
9.460000,9.785079,0.317012,1.200715,-0.021574,0.001201,0.007422
9.470000,9.750841,0.332704,1.188018,-0.021713,0.001132,0.007214
9.480000,9.716604,0.348396,1.175322,-0.021852,0.001062,0.007005
9.490000,9.682366,0.364089,1.162625,-0.021991,0.000993,0.006797
9.500000,9.665266,0.350813,1.152879,-0.022130,0.000923,0.006588
9.510000,9.702835,0.256396,1.161835,-0.022762,0.000431,0.006302
9.520000,9.718723,0.206026,1.173160,-0.023450,-0.000110,0.006007
9.530000,9.734612,0.155655,1.184485,-0.024137,-0.000650,0.005712
9.540000,9.744187,0.114524,1.196433,-0.024433,0.003005,0.006103
9.550000,9.657147,0.214786,1.217917,-0.023877,0.002218,0.004993
9.560000,9.743390,0.328121,1.134896,-0.024124,0.003807,0.004581
9.570000,9.786337,0.263896,1.188372,-0.023680,0.003178,0.004841
9.580000,9.754618,0.106755,1.217331,-0.023684,0.002846,0.005713
9.590000,9.827806,0.129561,1.198041,-0.025106,0.001890,0.005218
9.600000,9.791281,0.279612,1.142190,-0.023014,0.001770,0.005959
9.610000,9.619198,0.300015,1.171838,-0.023413,0.002091,0.005313
9.620000,9.666021,0.189268,1.201071,-0.024503,0.001205,0.005637
9.630000,9.818837,0.117820,1.198468,-0.024472,0.001682,0.006220
9.640000,9.945481,0.086689,1.243749,-0.024199,0.002410,0.005402
9.650000,9.679041,0.221207,1.237776,-0.023679,0.001605,0.004832
9.660000,9.666400,0.273733,1.196860,-0.023534,0.001366,0.004638
9.670000,9.726290,0.296358,1.129094,-0.023755,0.002148,0.004724
9.680000,9.718387,0.273440,1.149303,-0.023347,0.002206,0.004666
9.690000,9.710485,0.250523,1.169511,-0.022940,0.002264,0.004608
9.700000,9.702582,0.227605,1.189719,-0.022533,0.002322,0.004550
9.710000,9.694679,0.204687,1.209927,-0.022126,0.002381,0.004492
9.720000,9.686777,0.181770,1.230135,-0.021719,0.002439,0.004434
9.730000,9.788332,0.142641,1.225255,-0.023854,0.000574,0.004227
9.740000,9.854586,0.231840,1.179931,-0.024320,0.000917,0.005068
9.750000,9.767354,0.309869,1.160324,-0.023912,0.002548,0.005170
9.760000,9.630998,0.287075,1.175982,-0.023083,0.002479,0.006356
9.770000,9.767573,0.203232,1.163381,-0.022659,0.001909,0.005918
9.780000,9.857817,0.189926,1.188338,-0.023160,0.002238,0.005764
9.790000,9.731255,0.215196,1.207631,-0.023771,0.002718,0.005999
9.800000,9.716536,0.272555,1.191904,-0.023581,0.002054,0.005050
9.810000,9.827090,0.272571,1.169379,-0.023444,0.001310,0.004734
9.820000,9.807559,0.204805,1.196071,-0.023037,0.001749,0.004875
9.830000,9.687188,0.147194,1.209589,-0.022893,0.003573,0.004745
9.840000,9.740376,0.237333,1.142518,-0.023962,0.002347,0.004019
9.850000,9.833501,0.299582,1.161130,-0.023468,0.001163,0.004611
9.860000,9.774157,0.207183,1.205057,-0.023172,0.002663,0.004831
9.870000,9.731306,0.134694,1.230242,-0.023275,0.003021,0.004600
9.880000,9.829045,0.194000,1.173616,-0.023671,0.002253,0.004582
9.890000,9.798097,0.287879,1.167324,-0.024071,0.002153,0.005382
9.900000,9.659515,0.217644,1.195751,-0.024129,0.002663,0.006652
9.910000,9.797509,0.129508,1.208989,-0.023578,0.002593,0.007634
9.920000,9.877584,0.156990,1.215917,-0.022602,0.000982,0.006280
9.930000,9.816680,0.188294,1.206121,-0.022602,0.001554,0.005928
9.940000,9.755776,0.219597,1.196325,-0.022602,0.002127,0.005575
9.950000,9.855613,0.186033,1.235205,-0.022602,0.002699,0.005223
9.960000,9.787589,0.153860,1.200260,-0.023705,0.000476,0.004683
9.970000,9.676913,0.160638,1.198236,-0.023388,0.003228,0.004330
9.980000,9.641285,0.200631,1.212184,-0.023553,0.002235,0.003585
9.990000,9.779496,0.308172,1.201702,-0.023534,0.001185,0.003671
10.000000,9.765325,0.207734,1.200198,-0.023146,0.001056,0.005086
10.010000,9.762735,0.118505,1.263400,-0.025168,-0.001039,0.004816
10.020000,9.810862,0.292362,1.156918,-0.024692,0.001527,0.003882
10.030000,9.730237,0.364477,1.134133,-0.023900,0.001584,0.005059
10.040000,9.652317,0.259593,1.155282,-0.024332,0.001909,0.005167
10.050000,9.797922,0.154681,1.155132,-0.023347,0.001779,0.007489
10.060000,9.957254,0.142456,1.151872,-0.025068,0.000371,0.006316
10.070000,9.840678,0.257708,1.151979,-0.025709,0.000337,0.005330
10.080000,9.648003,0.294687,1.176308,-0.024541,0.001985,0.005319
10.090000,9.702136,0.298225,1.114393,-0.024120,0.001985,0.005908
10.100000,9.871473,0.138433,1.187423,-0.023427,0.001367,0.006567
10.110000,9.764129,0.125457,1.211597,-0.023337,0.002805,0.006179
10.120000,9.689166,0.131932,1.236428,-0.023798,0.002391,0.005534
10.130000,9.694715,0.148183,1.220771,-0.024258,0.001976,0.004890
10.140000,9.700264,0.164434,1.205115,-0.024234,0.001503,0.004464
10.150000,9.735783,0.100760,1.249593,-0.023062,0.000948,0.004595
10.160000,9.696035,0.113029,1.267571,-0.023105,0.001548,0.004852
10.170000,9.610412,0.206180,1.234874,-0.023148,0.002147,0.005109
10.180000,9.567482,0.267364,1.210678,-0.023191,0.002747,0.005366
10.190000,9.689927,0.204723,1.219408,-0.022947,0.002598,0.005498
10.200000,9.812372,0.142081,1.228139,-0.022400,0.001662,0.005498
10.210000,9.770039,0.135669,1.240258,-0.024153,-0.000013,0.003841
10.220000,9.626250,0.213431,1.228859,-0.024244,0.000539,0.003933
10.230000,9.669485,0.271479,1.183321,-0.024282,0.001713,0.004538
10.240000,9.695785,0.269600,1.164824,-0.024282,0.002153,0.004437
10.250000,9.722085,0.267722,1.146327,-0.024282,0.002592,0.004336
10.260000,9.748385,0.265843,1.127830,-0.024282,0.003032,0.004234
10.270000,9.794853,0.297366,1.121809,-0.024282,0.003471,0.004133
10.280000,9.848553,0.343319,1.140974,-0.023927,0.002269,0.004301
10.290000,9.777978,0.194368,1.175519,-0.023920,0.001312,0.004678
10.300000,9.740356,0.168032,1.179580,-0.024228,0.001329,0.005053
10.310000,9.727451,0.233664,1.160775,-0.024119,0.001547,0.005080
10.320000,9.714545,0.299297,1.141970,-0.024010,0.001765,0.005108
10.330000,9.728416,0.327088,1.128955,-0.023901,0.001983,0.005135
10.340000,9.798233,0.275813,1.128040,-0.023792,0.002201,0.005162
10.350000,9.868049,0.224538,1.127124,-0.023683,0.002419,0.005189
10.360000,9.670666,0.256268,1.166855,-0.023638,0.003040,0.005531
10.370000,9.677432,0.298724,1.181875,-0.023469,0.002530,0.005613
10.380000,9.668966,0.288030,1.181726,-0.023315,0.002799,0.005498
10.390000,9.660500,0.277335,1.181578,-0.023161,0.003068,0.005383
10.400000,9.652034,0.266641,1.181429,-0.023007,0.003338,0.005267
10.410000,9.767898,0.282835,1.215681,-0.022417,0.002287,0.005683
10.420000,9.767182,0.214789,1.259711,-0.022733,0.001507,0.005937
10.430000,9.679369,0.109990,1.292400,-0.023800,0.001917,0.005691
10.440000,9.760746,0.162969,1.201477,-0.022910,0.003051,0.006717
10.450000,9.792007,0.230855,1.216741,-0.023150,0.001706,0.006556
10.460000,9.645222,0.226850,1.206648,-0.023672,0.002897,0.006874
10.470000,9.693288,0.106902,1.270463,-0.023876,0.002286,0.007077
10.480000,9.852917,0.094715,1.228881,-0.023824,0.001794,0.005713
10.490000,9.888452,0.147019,1.230079,-0.023824,0.001487,0.004996
10.500000,9.651614,0.192180,1.220466,-0.024702,0.001450,0.004813
10.510000,9.733105,0.203047,1.207808,-0.024397,0.000951,0.005172
10.520000,9.859303,0.176602,1.173665,-0.023801,0.000099,0.004150
10.530000,9.819499,0.104173,1.190613,-0.023518,0.000456,0.003792
10.540000,9.682111,0.174432,1.145010,-0.023405,0.001753,0.004479
10.550000,9.742921,0.278565,1.125863,-0.022933,0.001187,0.004842
10.560000,9.823356,0.301643,1.141487,-0.022519,-0.000234,0.004013
10.570000,9.780620,0.173559,1.188526,-0.023614,0.001534,0.003977
10.580000,9.759438,0.073112,1.246607,-0.024276,0.000790,0.003233
10.590000,9.820708,0.278766,1.151084,-0.023770,0.000500,0.003719
10.600000,9.627962,0.369013,1.103346,-0.023248,0.003434,0.004512
10.610000,9.641342,0.202855,1.185741,-0.022661,0.000923,0.004581
10.620000,9.835064,0.142409,1.150949,-0.023683,0.001374,0.004860
10.630000,9.856479,0.227942,1.164830,-0.024227,0.001633,0.003439
10.640000,9.616661,0.308474,1.153597,-0.023589,0.003226,0.003214
10.650000,9.646473,0.324056,1.176202,-0.022782,0.001566,0.004668
10.660000,9.805875,0.238315,1.178021,-0.024050,0.000794,0.004502
10.670000,9.788361,0.154279,1.222908,-0.024060,0.001597,0.004660
10.680000,9.691610,0.162848,1.230033,-0.023561,0.002131,0.004500
10.690000,9.740123,0.297606,1.195535,-0.024318,0.001512,0.004775
10.700000,9.775667,0.407668,1.163527,-0.024972,0.000963,0.005107
10.710000,9.723872,0.231677,1.208088,-0.023795,0.001461,0.006900
10.720000,9.773967,0.160553,1.265319,-0.024621,0.001107,0.007280
10.730000,9.828651,0.216323,1.258158,-0.024438,0.002346,0.006729
10.740000,9.883336,0.272093,1.250997,-0.024254,0.003586,0.006178
10.750000,9.653499,0.310142,1.193323,-0.024016,0.002961,0.006198
10.760000,9.816031,0.145278,1.194796,-0.023741,0.000541,0.006955
10.770000,9.949541,0.081480,1.241121,-0.023298,0.001233,0.006154
10.780000,9.720394,0.176841,1.200750,-0.023955,0.002618,0.005896
10.790000,9.716678,0.253538,1.200456,-0.025347,0.001225,0.005263
10.800000,9.838276,0.199618,1.151478,-0.023787,0.000037,0.004799
10.810000,9.806768,0.088529,1.200300,-0.022621,0.001460,0.005548
10.820000,9.717796,0.081328,1.211939,-0.023539,0.001919,0.004997
10.830000,9.779406,0.207765,1.174520,-0.023933,0.001248,0.005285
10.840000,9.819842,0.281197,1.156930,-0.023388,0.001575,0.004521
10.850000,9.688702,0.198455,1.161289,-0.023466,0.002838,0.004363
10.860000,9.746550,0.089583,1.188253,-0.024481,0.000826,0.004878
10.870000,9.818166,0.173581,1.178100,-0.023671,0.000888,0.004498
10.880000,9.770952,0.243480,1.174126,-0.023782,0.000677,0.003976
10.890000,9.629206,0.262562,1.138689,-0.024252,0.000959,0.005291
10.900000,9.765940,0.189322,1.127217,-0.023560,0.002915,0.005415
10.910000,9.836323,0.187858,1.151918,-0.022434,0.002823,0.006131
10.920000,9.636211,0.231742,1.154758,-0.023607,0.002291,0.004971
10.930000,9.656821,0.287903,1.171246,-0.024501,0.001517,0.004154
10.940000,9.849348,0.282197,1.164347,-0.024603,0.000779,0.004108
10.950000,9.811236,0.209513,1.164861,-0.023980,0.003906,0.004616
10.960000,9.800668,0.228074,1.171500,-0.024010,0.003256,0.004956
10.970000,9.790101,0.246635,1.178139,-0.024041,0.002607,0.005296
10.980000,9.779533,0.265197,1.184778,-0.024072,0.001957,0.005636
10.990000,9.768965,0.283758,1.191416,-0.024103,0.001307,0.005976
11.000000,9.757481,0.167021,1.235762,-0.024297,0.000680,0.006387
11.010000,9.851800,0.296627,1.182454,-0.023897,0.000458,0.006418
11.020000,9.772925,0.341848,1.179569,-0.022570,0.001009,0.006183
11.030000,9.689298,0.236637,1.212612,-0.022727,0.002291,0.006886
11.040000,9.848115,0.137795,1.214400,-0.023436,0.001844,0.007189
11.050000,9.896774,0.198290,1.232012,-0.023136,0.001924,0.007376
11.060000,9.657807,0.249051,1.204424,-0.023466,0.001609,0.006437
11.070000,9.678457,0.270045,1.214658,-0.023785,0.001868,0.005995
11.080000,9.824288,0.210913,1.186691,-0.023422,0.001905,0.005876
11.090000,9.899253,0.124176,1.178208,-0.023161,0.001833,0.006305
11.100000,9.724981,0.094464,1.194397,-0.023715,0.001976,0.006352
11.110000,9.645984,0.183385,1.165136,-0.024215,0.002229,0.006097
11.120000,9.736003,0.309805,1.161615,-0.023202,0.003611,0.005912
11.130000,9.782833,0.280053,1.174251,-0.022690,0.003923,0.005517
11.140000,9.792110,0.188146,1.181371,-0.022906,0.002682,0.004816
11.150000,9.801387,0.096239,1.188490,-0.023122,0.001442,0.004115
11.160000,9.674345,0.247086,1.142524,-0.023492,0.001242,0.004143
11.170000,9.616823,0.292321,1.135366,-0.023976,0.001806,0.004708
11.180000,9.643877,0.205495,1.173116,-0.024297,0.002237,0.004971
11.190000,9.757783,0.145679,1.184545,-0.024435,0.002414,0.005040
11.200000,9.896853,0.122684,1.178779,-0.024435,0.002346,0.005040
11.210000,9.633985,0.309984,1.184177,-0.024592,0.001898,0.005000
11.220000,9.742576,0.269750,1.175942,-0.025146,0.000764,0.004133
11.230000,9.840891,0.178233,1.187530,-0.025337,0.000768,0.002614
11.240000,9.796095,0.094825,1.232034,-0.025078,0.000855,0.002960
11.250000,9.724930,0.209123,1.183077,-0.024324,0.001675,0.003586
11.260000,9.706836,0.297667,1.139018,-0.023491,0.002776,0.004205
11.270000,9.707779,0.321307,1.125277,-0.023445,0.002822,0.004343
11.280000,9.769006,0.234925,1.147822,-0.023399,0.002868,0.004481
11.290000,9.830233,0.148542,1.170367,-0.023502,0.002879,0.004855
11.300000,9.777837,0.219783,1.180057,-0.024007,0.002795,0.005865
11.310000,9.663152,0.377434,1.182701,-0.024001,0.002749,0.006414
11.320000,9.697280,0.262108,1.232306,-0.023385,0.002749,0.006414
11.330000,9.841505,0.186382,1.220947,-0.023280,0.002209,0.006886
11.340000,9.765942,0.195154,1.208226,-0.023443,0.001682,0.007464
11.350000,9.656474,0.278168,1.196665,-0.023976,0.002573,0.007260
11.360000,9.652746,0.302023,1.196141,-0.023976,0.002130,0.007083
11.370000,9.660007,0.206225,1.212303,-0.023976,0.001686,0.006905
11.380000,9.667268,0.110428,1.228464,-0.023976,0.001243,0.006728
11.390000,9.698184,0.192330,1.198065,-0.024034,0.002891,0.006377
11.400000,9.828833,0.328110,1.169689,-0.024129,0.002749,0.006436
11.410000,9.707361,0.244510,1.154808,-0.024220,0.002752,0.006995
11.420000,9.683440,0.118117,1.201881,-0.024566,0.001485,0.006830
11.430000,9.753259,0.125838,1.157237,-0.024488,0.001329,0.006674
11.440000,9.846263,0.205582,1.182582,-0.024490,0.001472,0.006706
11.450000,9.689991,0.235973,1.161576,-0.024665,0.002258,0.007142
11.460000,9.722713,0.155408,1.197795,-0.024394,0.002596,0.006855
11.470000,9.839180,0.146675,1.147141,-0.023787,0.002596,0.006020
11.480000,9.885500,0.164525,1.165286,-0.023497,0.002338,0.005801
11.490000,9.862500,0.175203,1.166723,-0.023458,0.001874,0.006072
11.500000,9.839500,0.185882,1.168161,-0.023420,0.001411,0.006342
11.510000,9.865292,0.165411,1.193763,-0.023381,0.000947,0.006612
11.520000,9.820521,0.129294,1.214886,-0.023765,0.001163,0.005636
11.530000,9.680968,0.129023,1.210894,-0.024427,0.001825,0.003839
11.540000,9.660593,0.196540,1.218085,-0.024316,0.001951,0.004409
11.550000,9.815481,0.243015,1.195131,-0.024077,0.002805,0.005299
11.560000,9.705983,0.124647,1.208713,-0.023855,0.001739,0.004733
11.570000,9.763341,0.212488,1.187387,-0.023560,0.002786,0.005086
11.580000,9.805547,0.317111,1.176179,-0.024269,0.001354,0.004203
11.590000,9.676988,0.326745,1.164454,-0.024138,0.002656,0.004984
11.600000,9.738090,0.250429,1.180649,-0.024188,0.002630,0.005929
11.610000,9.799191,0.174113,1.196845,-0.024252,0.002503,0.006887
11.620000,9.904390,0.226358,1.231385,-0.024176,0.002465,0.007330
11.630000,9.855744,0.247268,1.184232,-0.023979,0.002504,0.007330
11.640000,9.807097,0.268177,1.137079,-0.023783,0.002543,0.007330
11.650000,9.845117,0.238865,1.148212,-0.023586,0.002583,0.007330
11.660000,9.889633,0.169914,1.192341,-0.023622,0.003218,0.006398
11.670000,9.645811,0.218807,1.221123,-0.023297,0.002483,0.005769
11.680000,9.746657,0.353963,1.141896,-0.023586,0.001532,0.005425
11.690000,9.792280,0.309085,1.185806,-0.023071,0.002447,0.006858
11.700000,9.721386,0.136540,1.222296,-0.023727,0.002666,0.005983
11.710000,9.765532,0.092960,1.207190,-0.023644,0.002915,0.005567
11.720000,9.894744,0.239722,1.160870,-0.023303,0.002949,0.005729
11.730000,9.911121,0.205732,1.182190,-0.023172,0.002732,0.006206
11.740000,9.927497,0.171743,1.203511,-0.023042,0.002515,0.006684
11.750000,9.943874,0.137753,1.224832,-0.022912,0.002298,0.007162
11.760000,9.940741,0.112990,1.234363,-0.024033,0.001323,0.006199
11.770000,9.908329,0.102071,1.226203,-0.024877,0.002323,0.006398
11.780000,9.875918,0.091152,1.218042,-0.024802,0.002472,0.006323
11.790000,9.843506,0.080233,1.209882,-0.024727,0.002621,0.006249
11.800000,9.811095,0.069314,1.201722,-0.024653,0.002771,0.006174
11.810000,9.774929,0.085580,1.188148,-0.024577,0.002902,0.006044
11.820000,9.722798,0.217462,1.151553,-0.024489,0.002902,0.005519
11.830000,9.723653,0.308813,1.139576,-0.024303,0.002726,0.005499
11.840000,9.659854,0.148325,1.186371,-0.023981,0.002239,0.006247
11.850000,9.779921,0.163886,1.204834,-0.024055,0.001422,0.006024
11.860000,9.883249,0.182609,1.222237,-0.024129,0.000620,0.005800
11.870000,9.784726,0.211318,1.231589,-0.024129,0.001952,0.005384
11.880000,9.686204,0.240027,1.240941,-0.024053,0.002872,0.005040
11.890000,9.733266,0.221159,1.233613,-0.023613,0.001815,0.005040
11.900000,9.899960,0.156329,1.194351,-0.023342,0.001269,0.005040
11.910000,9.767870,0.177478,1.158360,-0.023288,0.001377,0.005040
11.920000,9.732571,0.179847,1.168921,-0.023234,0.001485,0.005040
11.930000,9.728363,0.176182,1.194436,-0.023180,0.001593,0.005040
11.940000,9.724156,0.172518,1.219951,-0.023126,0.001701,0.005040
11.950000,9.719949,0.168854,1.245467,-0.023072,0.001809,0.005040
11.960000,9.779150,0.277534,1.193137,-0.023060,0.001952,0.005159
11.970000,9.742336,0.268220,1.174867,-0.023176,0.002799,0.005425
11.980000,9.675512,0.212967,1.181809,-0.023325,0.003840,0.005722
11.990000,9.710696,0.178207,1.160389,-0.023827,0.003107,0.005896
12.000000,9.801116,0.202516,1.149480,-0.023803,0.002313,0.006021
12.010000,9.713012,0.306142,1.154927,-0.023366,0.002694,0.006642
12.020000,9.645197,0.239154,1.216539,-0.023366,0.002260,0.006036
12.030000,9.640688,0.219845,1.208322,-0.023391,0.002240,0.005753
12.040000,9.656730,0.216014,1.177435,-0.023461,0.002938,0.006032
12.050000,9.652342,0.219431,1.173604,-0.023589,0.003427,0.006304
12.060000,9.677664,0.243138,1.190080,-0.023990,0.002946,0.006544
12.070000,9.805038,0.248269,1.158483,-0.024094,0.002346,0.006626
12.080000,9.906567,0.185225,1.215436,-0.023404,0.001426,0.006281
12.090000,9.686177,0.130055,1.180611,-0.023648,0.003778,0.006120
12.100000,9.729834,0.254800,1.186999,-0.023687,0.002353,0.004908
12.110000,9.816115,0.293228,1.174644,-0.024014,0.002317,0.006082
12.120000,9.821530,0.279287,1.193064,-0.024432,0.001602,0.006254
12.130000,9.825138,0.278908,1.198950,-0.024239,0.001506,0.005674
12.140000,9.828745,0.278528,1.204836,-0.024046,0.001409,0.005095
12.150000,9.665164,0.314296,1.148011,-0.023507,0.002571,0.005798
12.160000,9.700199,0.166403,1.240442,-0.022911,0.001218,0.005500
12.170000,9.842875,0.109022,1.173239,-0.023308,0.000821,0.005765
12.180000,9.760902,0.177000,1.148174,-0.023705,0.000424,0.006029
12.190000,9.670109,0.250650,1.128732,-0.023475,0.003094,0.005499
12.200000,9.718651,0.255369,1.129744,-0.023290,0.004380,0.004885
12.210000,9.804474,0.223042,1.159641,-0.023454,0.002664,0.004558
12.220000,9.874643,0.117536,1.225956,-0.024540,0.000239,0.003388
12.230000,9.732767,0.117236,1.221923,-0.023350,0.002379,0.004102
12.240000,9.679713,0.198517,1.235867,-0.023512,0.002450,0.004276
12.250000,9.747955,0.368529,1.157527,-0.024109,0.001853,0.004276
12.260000,9.709280,0.170901,1.194892,-0.022971,0.003122,0.004703
12.270000,9.778554,0.095291,1.178218,-0.023670,0.002139,0.005878
12.280000,9.856635,0.292222,1.158446,-0.023962,0.001017,0.005279
12.290000,9.627120,0.381114,1.117428,-0.022936,0.003888,0.005787
12.300000,9.617025,0.252261,1.219756,-0.024321,-0.000270,0.006369
12.310000,9.740722,0.177568,1.192882,-0.024162,0.000389,0.006505
12.320000,9.889099,0.130382,1.223527,-0.024301,0.002366,0.006783
12.330000,9.800327,0.181767,1.198839,-0.024645,0.004239,0.006880
12.340000,9.653833,0.276893,1.193408,-0.023870,0.002689,0.005951
12.350000,9.763421,0.298389,1.110568,-0.023395,0.001979,0.005285
12.360000,9.862062,0.149711,1.157044,-0.023481,0.002835,0.005114
12.370000,9.746974,0.074325,1.199250,-0.023583,0.002688,0.005137
12.380000,9.737943,0.159371,1.207529,-0.023698,0.001770,0.005309
12.390000,9.721052,0.278858,1.192062,-0.023813,0.000853,0.005481
12.400000,9.740253,0.268722,1.186501,-0.023172,0.002790,0.005678
12.410000,9.782243,0.175145,1.192739,-0.023423,0.002539,0.005741
12.420000,9.808912,0.107661,1.194239,-0.023668,0.002290,0.005808
12.430000,9.740919,0.201404,1.166464,-0.023485,0.002229,0.006113
12.440000,9.676824,0.283764,1.144927,-0.023302,0.002168,0.006419
12.450000,9.694678,0.212597,1.201936,-0.023752,0.002318,0.006627
12.460000,9.901276,0.130397,1.229586,-0.024620,0.002464,0.006687
12.470000,9.863711,0.182944,1.200706,-0.024784,0.001809,0.006523
12.480000,9.826146,0.235492,1.171827,-0.024948,0.001153,0.006359
12.490000,9.807757,0.242679,1.159593,-0.024159,0.002167,0.006335
12.500000,9.792025,0.144434,1.184503,-0.023105,0.002042,0.006089
12.510000,9.689404,0.093487,1.189598,-0.023380,0.002653,0.006169
12.520000,9.772669,0.247107,1.166938,-0.024867,0.001998,0.004931
12.530000,9.801845,0.299931,1.157424,-0.024624,0.002578,0.005575
12.540000,9.719367,0.243304,1.150563,-0.023635,0.003800,0.005795
12.550000,9.682161,0.143233,1.219415,-0.023418,0.003692,0.004818
12.560000,9.794369,0.218252,1.141353,-0.022999,0.004154,0.005682
12.570000,9.825378,0.297308,1.140672,-0.022514,0.004800,0.007136
12.580000,9.711324,0.250405,1.149279,-0.022625,0.004360,0.006663
12.590000,9.798609,0.206993,1.160132,-0.022827,0.003752,0.005893
12.600000,9.826145,0.182901,1.167450,-0.023030,0.003144,0.005123
12.610000,9.620688,0.234150,1.160986,-0.023213,0.002474,0.004567
12.620000,9.711014,0.277077,1.175501,-0.023243,0.001434,0.005803
12.630000,9.871445,0.228585,1.171911,-0.023498,0.001944,0.005803
12.640000,9.843118,0.136065,1.183399,-0.023681,0.002160,0.005833
12.650000,9.821976,0.119636,1.201484,-0.023713,0.001749,0.005928
12.660000,9.800835,0.103207,1.219569,-0.023744,0.001339,0.006023
12.670000,9.779693,0.086778,1.237654,-0.023776,0.000929,0.006117
12.680000,9.758552,0.070349,1.255739,-0.023807,0.000519,0.006212
12.690000,9.780537,0.137115,1.192299,-0.023905,0.001275,0.006100
12.700000,9.786732,0.174525,1.167433,-0.024140,0.002029,0.005901
12.710000,9.765907,0.160387,1.198192,-0.024426,0.001838,0.005806
12.720000,9.745083,0.146249,1.228952,-0.024713,0.001647,0.005711
12.730000,9.816549,0.117039,1.229632,-0.024272,0.001766,0.005603
12.740000,9.853721,0.173862,1.205440,-0.023225,0.001867,0.005710
12.750000,9.573526,0.250686,1.207155,-0.024958,0.001969,0.004500
12.760000,9.670795,0.303376,1.140712,-0.022607,0.002140,0.005791
12.770000,9.846198,0.189938,1.184156,-0.022785,0.002211,0.005329
12.780000,9.810760,0.224178,1.164468,-0.022962,0.002282,0.004866
12.790000,9.775322,0.258418,1.144780,-0.023140,0.002353,0.004403
12.800000,9.739883,0.292658,1.125092,-0.023318,0.002425,0.003941
12.810000,9.785435,0.379439,1.164625,-0.022808,0.001747,0.004654
12.820000,9.769201,0.215928,1.208897,-0.023456,0.000699,0.004734
12.830000,9.752968,0.052416,1.253169,-0.024210,-0.000357,0.004734
12.840000,9.786848,0.250582,1.172823,-0.023756,0.002138,0.005118
12.850000,9.672547,0.327093,1.165415,-0.023483,0.002667,0.004922
12.860000,9.627216,0.286178,1.170330,-0.023532,0.003268,0.005013
12.870000,9.860568,0.143076,1.172903,-0.023060,0.001290,0.006488
12.880000,9.883705,0.130816,1.174478,-0.024044,0.001811,0.005150
12.890000,9.636691,0.221011,1.208401,-0.024199,0.002303,0.004652
12.900000,9.648743,0.363434,1.121811,-0.024242,0.001994,0.004638
12.910000,9.700338,0.270692,1.139445,-0.024214,0.001304,0.004679
12.920000,9.751934,0.177950,1.157080,-0.023779,0.001467,0.004570
12.930000,9.776122,0.104872,1.201940,-0.023344,0.001631,0.004462
12.940000,9.777426,0.226337,1.196918,-0.024135,0.002470,0.004165
12.950000,9.807413,0.395908,1.191881,-0.023786,0.001604,0.004818
12.960000,9.670470,0.250980,1.144840,-0.022853,0.003064,0.005287
12.970000,9.719198,0.143759,1.196019,-0.023462,0.003108,0.005034
12.980000,9.831478,0.166635,1.174919,-0.024368,0.001892,0.004801
12.990000,9.704911,0.245644,1.195060,-0.024172,0.001618,0.004996
13.000000,9.688727,0.263148,1.206139,-0.023977,0.001345,0.005192
13.010000,9.825173,0.208404,1.200086,-0.023782,0.001071,0.005387
13.020000,9.875479,0.167544,1.192886,-0.023805,0.000782,0.005095
13.030000,9.801731,0.176986,1.189326,-0.023848,0.000923,0.004655
13.040000,9.822934,0.199819,1.192044,-0.023561,0.001620,0.004819
13.050000,9.844136,0.222652,1.194763,-0.023274,0.002316,0.004983
13.060000,9.832400,0.214419,1.186399,-0.022988,0.003012,0.005147
13.070000,9.699892,0.116358,1.213183,-0.023052,0.003712,0.004832
13.080000,9.756966,0.234022,1.167441,-0.023222,0.004211,0.004480
13.090000,9.779610,0.280776,1.144451,-0.023270,0.003879,0.004741
13.100000,9.774588,0.285081,1.148278,-0.023317,0.003547,0.005002
13.110000,9.769566,0.289386,1.152104,-0.023364,0.003215,0.005262
13.120000,9.764544,0.293690,1.155930,-0.023412,0.002883,0.005523
13.130000,9.759522,0.297995,1.159757,-0.023459,0.002551,0.005784
13.140000,9.756887,0.232196,1.176568,-0.023507,0.002219,0.006045
13.150000,9.796031,0.139128,1.197384,-0.023668,0.002447,0.006105
13.160000,9.833784,0.191112,1.160956,-0.022826,0.002893,0.005362
13.170000,9.758708,0.235438,1.142841,-0.023033,0.002948,0.005358
13.180000,9.716277,0.263003,1.136957,-0.023905,0.002790,0.005833
13.190000,9.810930,0.213899,1.165680,-0.024129,0.002550,0.005361
13.200000,9.854870,0.163797,1.202289,-0.024129,0.002283,0.004559
13.210000,9.670221,0.160565,1.238249,-0.024129,0.002016,0.003757
13.220000,9.653323,0.145380,1.246137,-0.024129,0.001848,0.003940
13.230000,9.682587,0.126906,1.246301,-0.024129,0.001693,0.004250
13.240000,9.711852,0.108432,1.246464,-0.024129,0.001538,0.004560
13.250000,9.750321,0.111090,1.225811,-0.024129,0.001383,0.004870
13.260000,9.806550,0.264949,1.120977,-0.023927,0.002081,0.005391
13.270000,9.722782,0.352804,1.144819,-0.023509,0.000868,0.005484
13.280000,9.622757,0.271385,1.171196,-0.023252,0.004086,0.005127
13.290000,9.779423,0.152957,1.239560,-0.023961,0.000685,0.006686
13.300000,9.839719,0.161147,1.211959,-0.023480,0.002334,0.006606
13.310000,9.652893,0.258768,1.207246,-0.023386,0.003176,0.006699
13.320000,9.619703,0.304210,1.170609,-0.023865,0.002366,0.006614
13.330000,9.648412,0.328629,1.121111,-0.023459,0.001311,0.006451
13.340000,9.835184,0.155808,1.156546,-0.023138,0.002508,0.006641
13.350000,9.789635,0.188754,1.142535,-0.023052,0.003763,0.006760
13.360000,9.744457,0.267396,1.140304,-0.023717,0.002802,0.006243
13.370000,9.721691,0.279598,1.149754,-0.024212,0.002032,0.005803
13.380000,9.713340,0.249063,1.166718,-0.023747,0.002342,0.005803
13.390000,9.728884,0.204967,1.174448,-0.023281,0.002652,0.005803
13.400000,9.796561,0.131283,1.162034,-0.022975,0.002902,0.005905
13.410000,9.807163,0.274848,1.160882,-0.023318,0.002902,0.006419
13.420000,9.612923,0.281220,1.146447,-0.023541,0.002744,0.006652
13.430000,9.708697,0.177715,1.190018,-0.023595,0.002365,0.006490
13.440000,9.842568,0.136007,1.191028,-0.023649,0.001986,0.006327
13.450000,9.832417,0.141286,1.205173,-0.023628,0.002223,0.006131
13.460000,9.683761,0.191754,1.231952,-0.023555,0.002879,0.005912
13.470000,9.749537,0.225215,1.183559,-0.023285,0.003557,0.005453
13.480000,9.774242,0.194667,1.171355,-0.022820,0.004255,0.004755
13.490000,9.714452,0.117537,1.206034,-0.022777,0.003882,0.004516
13.500000,9.712483,0.139424,1.210041,-0.023105,0.002569,0.004680
13.510000,9.752343,0.235911,1.189134,-0.023790,0.001416,0.004301
13.520000,9.732854,0.269904,1.163753,-0.024485,0.001213,0.004521
13.530000,9.709383,0.128750,1.221903,-0.023671,0.002417,0.004939
13.540000,9.773418,0.154562,1.160847,-0.023671,0.002077,0.005620
13.550000,9.751139,0.179894,1.171856,-0.023740,0.002055,0.005942
13.560000,9.722723,0.205193,1.187989,-0.023835,0.002149,0.006131
13.570000,9.694308,0.230492,1.204121,-0.023930,0.002244,0.006321
13.580000,9.834413,0.193255,1.166880,-0.023828,0.002179,0.006414
13.590000,9.791102,0.195641,1.161216,-0.023535,0.001959,0.006414
13.600000,9.657805,0.221847,1.175128,-0.023802,0.002597,0.006414
13.610000,9.681317,0.296242,1.195228,-0.024868,0.001374,0.006796
13.620000,9.841558,0.245001,1.180255,-0.024407,0.001548,0.006181
13.630000,9.729086,0.178881,1.207180,-0.023642,0.002122,0.005352
13.640000,9.687629,0.234743,1.167271,-0.023315,0.003769,0.005499
13.650000,9.868485,0.312245,1.189218,-0.023239,0.002156,0.004920
13.660000,9.755599,0.242824,1.170632,-0.023606,0.003254,0.005783
13.670000,9.704380,0.106883,1.232422,-0.024393,0.001635,0.006100
13.680000,9.766209,0.214708,1.150633,-0.023942,0.003283,0.004938
13.690000,9.790271,0.319760,1.162407,-0.023272,0.002187,0.005790
13.700000,9.617615,0.269745,1.143026,-0.022313,0.004241,0.005653
13.710000,9.686436,0.182442,1.204767,-0.022978,0.002233,0.006040
13.720000,9.763794,0.157405,1.227486,-0.023483,0.001234,0.006191
13.730000,9.848553,0.186340,1.216379,-0.023750,0.001607,0.006031
13.740000,9.783964,0.228627,1.198185,-0.024017,0.001981,0.005871
13.750000,9.680672,0.248202,1.180987,-0.024266,0.002083,0.005639
13.760000,9.850343,0.181761,1.184216,-0.024501,0.001989,0.005356
13.770000,9.752095,0.151270,1.201155,-0.024737,0.001895,0.005074
13.780000,9.663826,0.157258,1.200213,-0.024893,0.002141,0.004640
13.790000,9.800132,0.332409,1.163235,-0.024363,0.000583,0.005336
13.800000,9.800190,0.263446,1.167620,-0.023993,0.000924,0.005667
13.810000,9.754604,0.127950,1.224210,-0.023862,0.002398,0.005513
13.820000,9.755895,0.090434,1.223813,-0.024428,0.001463,0.005740
13.830000,9.787227,0.165302,1.175164,-0.023931,0.001265,0.005541
13.840000,9.724599,0.331217,1.163396,-0.023720,0.002358,0.005498
13.850000,9.652138,0.252973,1.179561,-0.023222,0.002441,0.006403
13.860000,9.825228,0.116171,1.180935,-0.023642,0.002336,0.005878
13.870000,9.887006,0.174477,1.209662,-0.023660,0.001635,0.005405
13.880000,9.667372,0.263124,1.152769,-0.023832,0.003057,0.005402
13.890000,9.616137,0.318882,1.187526,-0.024063,0.003275,0.004976
13.900000,9.777134,0.244620,1.130031,-0.024193,0.002813,0.004646
13.910000,9.815831,0.204463,1.156803,-0.024346,0.002965,0.004798
13.920000,9.854528,0.164305,1.183574,-0.024498,0.003118,0.004950
13.930000,9.685195,0.246923,1.182778,-0.024345,0.003369,0.004932
13.940000,9.713424,0.308438,1.153706,-0.023758,0.003760,0.004671
13.950000,9.706788,0.147864,1.228365,-0.023087,0.003495,0.004554
13.960000,9.760592,0.104236,1.193320,-0.022983,0.002288,0.005646
13.970000,9.764759,0.155098,1.159393,-0.023294,0.002729,0.006475
13.980000,9.705015,0.269564,1.151198,-0.023757,0.002613,0.006822
13.990000,9.698513,0.313428,1.148218,-0.024219,0.002497,0.007169
14.000000,9.836888,0.157980,1.156897,-0.022714,0.001782,0.007595
14.010000,9.813380,0.189481,1.139971,-0.023031,0.002184,0.007092
14.020000,9.789872,0.220981,1.123046,-0.023666,0.002734,0.006500
14.030000,9.766364,0.252482,1.106120,-0.024300,0.003284,0.005908
14.040000,9.766576,0.249468,1.124567,-0.024473,0.003073,0.005616
14.050000,9.804576,0.191466,1.199370,-0.023605,0.001143,0.006002
14.060000,9.710967,0.144246,1.187765,-0.023151,0.001896,0.005252
14.070000,9.800935,0.245059,1.180479,-0.024485,0.001419,0.005307
14.080000,9.828329,0.294538,1.168343,-0.023634,0.002338,0.005929
14.090000,9.737081,0.231015,1.197248,-0.023647,0.002604,0.005771
14.100000,9.710059,0.129713,1.188559,-0.024129,0.002298,0.005472
14.110000,9.702353,0.154130,1.189214,-0.024129,0.002223,0.005737
14.120000,9.672990,0.191540,1.209007,-0.024129,0.001699,0.005858
14.130000,9.649129,0.225987,1.226205,-0.024129,0.001174,0.005979
14.140000,9.764439,0.185497,1.177793,-0.024129,0.000650,0.006100
14.150000,9.905223,0.162371,1.164422,-0.023724,0.001642,0.005606
14.160000,9.697289,0.215145,1.163142,-0.024545,0.003453,0.004895
14.170000,9.658639,0.228399,1.196746,-0.023840,0.002467,0.005036
14.180000,9.743436,0.237145,1.164805,-0.023525,0.002642,0.005239
14.190000,9.850132,0.191808,1.194853,-0.023273,0.001540,0.005345
14.200000,9.682384,0.184530,1.174737,-0.022597,0.002729,0.004709
14.210000,9.646327,0.222304,1.197488,-0.022479,0.002256,0.004118
14.220000,9.839565,0.293494,1.153163,-0.025159,0.001828,0.004266
14.230000,9.800740,0.218372,1.184099,-0.024324,0.002249,0.004998
14.240000,9.725765,0.156705,1.189368,-0.023557,0.002687,0.005956
14.250000,9.777958,0.221950,1.163530,-0.024318,0.000622,0.005956
14.260000,9.723730,0.342156,1.160005,-0.023524,0.002386,0.006216
14.270000,9.660109,0.273690,1.196978,-0.023731,0.002968,0.006554
14.280000,9.716678,0.173690,1.205364,-0.024113,0.003109,0.006848
14.290000,9.919872,0.143171,1.203885,-0.023888,0.001760,0.006510
14.300000,9.809674,0.232150,1.172554,-0.023503,0.002336,0.006094
14.310000,9.657559,0.267540,1.172643,-0.023463,0.003144,0.005741
14.320000,9.726509,0.245261,1.142492,-0.023883,0.002877,0.006006
14.330000,9.852677,0.186264,1.187984,-0.023905,0.002632,0.006176
14.340000,9.741937,0.148166,1.189418,-0.023727,0.002777,0.004957
14.350000,9.703620,0.203686,1.221378,-0.023943,0.002885,0.005226
14.360000,9.798113,0.284922,1.197684,-0.024158,0.002992,0.005495
14.370000,9.815183,0.270809,1.178093,-0.023862,0.002215,0.005315
14.380000,9.722980,0.186886,1.171436,-0.023107,0.003501,0.004934
14.390000,9.674715,0.221736,1.169586,-0.023346,0.003441,0.005173
14.400000,9.626450,0.256585,1.167735,-0.023584,0.003381,0.005411
14.410000,9.578185,0.291435,1.165885,-0.023823,0.003322,0.005650
14.420000,9.686522,0.233115,1.174514,-0.024062,0.003262,0.005888
14.430000,9.891885,0.117070,1.189634,-0.024238,0.002986,0.006175
14.440000,9.918515,0.181703,1.190073,-0.024290,0.002097,0.006462
14.450000,9.625584,0.276738,1.192639,-0.024435,0.002995,0.005810
14.460000,9.680206,0.294045,1.133938,-0.024051,0.001997,0.005619
14.470000,9.826223,0.213443,1.135311,-0.023419,0.000860,0.005367
14.480000,9.826617,0.165038,1.165220,-0.023958,0.001282,0.005493
14.490000,9.702922,0.113284,1.201055,-0.024607,0.001833,0.005664
14.500000,9.709476,0.233362,1.178581,-0.025292,0.001833,0.006120
14.510000,9.800144,0.313579,1.178385,-0.024040,0.002013,0.005533
14.520000,9.742055,0.173834,1.210914,-0.023674,0.001500,0.005680
14.530000,9.746005,0.113908,1.198586,-0.023464,0.001314,0.005852
14.540000,9.806602,0.195038,1.184438,-0.024136,0.002223,0.006482
14.550000,9.730976,0.297526,1.174154,-0.024286,0.002496,0.007029
14.560000,9.645478,0.243854,1.176456,-0.024222,0.002114,0.006406
14.570000,9.803303,0.169177,1.165181,-0.023729,0.001996,0.006330
14.580000,9.911984,0.146976,1.197973,-0.023518,0.002569,0.004605
14.590000,9.716555,0.225382,1.187581,-0.023062,0.002745,0.005499
14.600000,9.670214,0.247499,1.209699,-0.023597,0.001676,0.005900
14.610000,9.779883,0.235885,1.144085,-0.023467,0.001425,0.005956
14.620000,9.809898,0.197294,1.174576,-0.023682,0.001163,0.005850
14.630000,9.711575,0.158639,1.181297,-0.024234,0.001069,0.006131
14.640000,9.730328,0.225769,1.170056,-0.024313,0.001289,0.006304
14.650000,9.842683,0.277618,1.157972,-0.023853,0.001709,0.005961
14.660000,9.786421,0.282049,1.174450,-0.023934,0.001790,0.005556
14.670000,9.705854,0.156903,1.203581,-0.024017,0.001914,0.005630
14.680000,9.792789,0.195462,1.152259,-0.024102,0.002083,0.006223
14.690000,9.752760,0.277759,1.155393,-0.023348,0.001859,0.005758
14.700000,9.671103,0.233808,1.200693,-0.022828,0.002603,0.005920
14.710000,9.748112,0.168650,1.172514,-0.023524,0.002544,0.005977
14.720000,9.870589,0.166426,1.173765,-0.024236,0.003070,0.005666
14.730000,9.793485,0.203848,1.170471,-0.024134,0.002762,0.004333
14.740000,9.661526,0.245498,1.138468,-0.023653,0.001558,0.005586
14.750000,9.733488,0.241966,1.179865,-0.023589,0.000726,0.005318
14.760000,9.846320,0.205215,1.167115,-0.023679,0.000227,0.004631
14.770000,9.822228,0.195885,1.190597,-0.023732,0.000702,0.004948
14.780000,9.688505,0.236898,1.181981,-0.023785,0.001177,0.005265
14.790000,9.720052,0.284530,1.164643,-0.023677,0.001478,0.005571
14.800000,9.755347,0.253238,1.183182,-0.023122,0.001293,0.005849
14.810000,9.723681,0.132910,1.244650,-0.023406,0.001637,0.005790
14.820000,9.769597,0.151844,1.218107,-0.023766,0.002215,0.005535
14.830000,9.717674,0.251021,1.157014,-0.023728,0.002445,0.005667
14.840000,9.646950,0.306209,1.131734,-0.024014,0.001681,0.007290
14.850000,9.648151,0.217334,1.196989,-0.023866,0.000760,0.007502
14.860000,9.804209,0.143328,1.145736,-0.023903,-0.000004,0.006714
14.870000,9.724068,0.219069,1.160405,-0.023969,0.000297,0.005900
14.880000,9.645635,0.266816,1.192501,-0.023617,0.001617,0.005108
14.890000,9.625976,0.253065,1.211027,-0.023518,0.002638,0.005105
14.900000,9.691400,0.173910,1.187065,-0.023518,0.003544,0.005407
14.910000,9.738942,0.116741,1.166217,-0.023629,0.003915,0.005539
14.920000,9.679040,0.235156,1.158941,-0.024176,0.002338,0.005016
14.930000,9.756650,0.355473,1.107507,-0.024527,0.002689,0.004841
14.940000,9.810846,0.326566,1.147484,-0.024262,0.002328,0.005403
14.950000,9.716057,0.139934,1.205241,-0.023940,0.002205,0.005876
14.960000,9.701116,0.228299,1.180482,-0.023892,0.002492,0.005972
14.970000,9.686175,0.316665,1.155723,-0.023844,0.002780,0.006068
14.980000,9.628243,0.302249,1.166057,-0.023824,0.002517,0.006263
14.990000,9.660426,0.200912,1.175996,-0.023892,0.001695,0.006448
15.000000,9.845805,0.131503,1.179284,-0.024049,0.000672,0.006527
15.010000,9.893276,0.144305,1.184711,-0.024169,0.000711,0.006208
15.020000,9.735649,0.215815,1.146215,-0.024250,0.001847,0.005478
15.030000,9.626693,0.239924,1.103096,-0.024103,0.003098,0.005910
15.040000,9.778149,0.211809,1.166995,-0.023936,0.003339,0.006251
15.050000,9.825734,0.160782,1.192697,-0.023864,0.002769,0.005966
15.060000,9.744029,0.124866,1.161790,-0.023648,0.002092,0.005511
15.070000,9.761996,0.271657,1.131973,-0.023653,0.001814,0.005088
15.080000,9.807633,0.345308,1.147158,-0.023508,0.002366,0.005115
15.090000,9.703820,0.200548,1.156891,-0.023045,0.002049,0.004701
15.100000,9.714390,0.223634,1.157033,-0.023465,0.001699,0.004211
15.110000,9.743751,0.272773,1.156625,-0.023814,0.002145,0.004398
15.120000,9.773112,0.321912,1.156217,-0.024094,0.003360,0.005239
15.130000,9.635415,0.284604,1.180798,-0.024396,0.002926,0.005985
15.140000,9.713443,0.232831,1.179978,-0.024700,0.002256,0.006716
15.150000,9.876626,0.177422,1.169018,-0.024001,0.002481,0.006205
15.160000,9.684200,0.206333,1.222254,-0.024113,0.002399,0.005099
15.170000,9.693398,0.221768,1.228209,-0.024580,0.002123,0.004820
15.180000,9.769905,0.228588,1.219685,-0.023829,0.002820,0.004659
15.190000,9.842918,0.234306,1.211377,-0.023079,0.003517,0.004498
15.200000,9.672846,0.163355,1.218159,-0.023219,0.002192,0.004196
15.210000,9.732555,0.258380,1.147436,-0.023838,0.000944,0.004387
15.220000,9.741795,0.239627,1.161113,-0.023877,0.001089,0.005000
15.230000,9.730758,0.187973,1.197535,-0.023718,0.000877,0.005423
15.240000,9.718565,0.144091,1.229980,-0.023559,0.000665,0.005847
15.250000,9.695558,0.172938,1.225202,-0.023364,0.000688,0.006188
15.260000,9.672552,0.201785,1.220423,-0.023334,0.000764,0.006513
15.270000,9.649545,0.230632,1.215645,-0.023779,0.000764,0.006878
15.280000,9.640105,0.240325,1.215460,-0.024225,0.000764,0.007242
15.290000,9.636119,0.242317,1.217120,-0.024670,0.000764,0.007606
15.300000,9.632133,0.244310,1.218781,-0.024653,0.001124,0.007308
15.310000,9.645648,0.249381,1.208824,-0.024172,0.001845,0.006346
15.320000,9.799522,0.236202,1.164074,-0.023664,0.002606,0.005722
15.330000,9.882811,0.165809,1.198798,-0.023139,0.003394,0.005328
15.340000,9.680046,0.173168,1.189602,-0.022997,0.003426,0.004979
15.350000,9.699918,0.310241,1.080797,-0.023485,0.003312,0.005603
15.360000,9.849903,0.294265,1.156761,-0.023518,0.002035,0.005803
15.370000,9.749968,0.143620,1.141156,-0.023656,0.002309,0.006354
15.380000,9.774160,0.171983,1.137263,-0.023941,0.002106,0.006144
15.390000,9.798352,0.200346,1.133370,-0.024225,0.001751,0.005860
15.400000,9.693207,0.314150,1.127573,-0.024389,0.001039,0.006185
15.410000,9.645472,0.292404,1.124390,-0.024219,0.000925,0.006469
15.420000,9.634649,0.253620,1.121837,-0.024049,0.000812,0.006752
15.430000,9.885888,0.129396,1.118283,-0.024376,0.001030,0.006473
15.440000,9.726891,0.210389,1.121364,-0.023757,0.002529,0.005458
15.450000,9.577265,0.237865,1.144762,-0.024249,0.003021,0.004350
15.460000,9.602740,0.206593,1.172678,-0.024461,0.003126,0.004348
15.470000,9.628214,0.175321,1.200594,-0.024652,0.003202,0.004424
15.480000,9.653689,0.144050,1.228509,-0.024844,0.003279,0.004501
15.490000,9.686405,0.203487,1.201499,-0.025035,0.003356,0.004577
15.500000,9.801510,0.381799,1.166433,-0.023602,0.001772,0.005015
15.510000,9.740313,0.260250,1.171498,-0.023335,0.002777,0.004948
15.520000,9.762599,0.196133,1.183507,-0.023496,0.003456,0.005029
15.530000,9.842219,0.171458,1.200286,-0.024270,0.003301,0.005415
15.540000,9.804693,0.305822,1.221832,-0.024379,0.002937,0.005560
15.550000,9.629750,0.306745,1.212904,-0.023795,0.002826,0.005832
15.560000,9.771818,0.217046,1.225795,-0.023677,0.002510,0.005950
15.570000,9.891330,0.138361,1.238163,-0.023559,0.002195,0.006068
15.580000,9.758984,0.182666,1.244695,-0.023440,0.001879,0.006187
15.590000,9.626637,0.226971,1.251228,-0.023540,0.001796,0.005912
15.600000,9.742902,0.315989,1.174701,-0.023553,0.001445,0.005021
15.610000,9.834221,0.240902,1.175717,-0.023256,0.000580,0.004502
15.620000,9.810902,0.151692,1.172608,-0.023987,0.001038,0.004776
15.630000,9.683569,0.125099,1.218137,-0.024306,0.001149,0.005057
15.640000,9.690158,0.191837,1.176054,-0.024347,0.001027,0.005342
15.650000,9.696747,0.258575,1.133971,-0.024388,0.000904,0.005628
15.660000,9.746056,0.235751,1.108533,-0.024428,0.000782,0.005913
15.670000,9.822170,0.162488,1.102381,-0.024433,0.002002,0.007021
15.680000,9.835740,0.253813,1.123287,-0.024372,0.002552,0.006899
15.690000,9.777072,0.271853,1.135853,-0.024310,0.003103,0.006777
15.700000,9.650152,0.220652,1.140541,-0.023993,0.002589,0.006527
15.710000,9.795394,0.180960,1.100508,-0.023824,0.002059,0.006808
15.720000,9.844787,0.178488,1.101448,-0.023720,0.002505,0.007126
15.730000,9.639466,0.201265,1.141232,-0.023403,0.003301,0.006987
15.740000,9.769690,0.206926,1.151224,-0.023035,0.002627,0.006864
15.750000,9.834406,0.193934,1.154817,-0.022667,0.001952,0.006741
15.760000,9.747919,0.140142,1.156965,-0.024401,0.002432,0.004561
15.770000,9.644101,0.115744,1.219085,-0.024670,0.002738,0.004072
15.780000,9.694859,0.159383,1.216052,-0.024383,0.002921,0.004202
15.790000,9.745617,0.203021,1.213020,-0.024095,0.003104,0.004333
15.800000,9.796375,0.246660,1.209988,-0.023808,0.003286,0.004464
15.810000,9.847133,0.290298,1.206956,-0.023521,0.003469,0.004594
15.820000,9.789414,0.281902,1.202829,-0.023233,0.003652,0.004725
15.830000,9.712075,0.264093,1.198504,-0.023762,0.003025,0.005740
15.840000,9.668706,0.251966,1.198846,-0.023917,0.002469,0.006244
15.850000,9.660232,0.245675,1.203982,-0.023355,0.002132,0.005795
15.860000,9.651757,0.239383,1.209117,-0.022794,0.001795,0.005346
15.870000,9.643283,0.233092,1.214253,-0.022874,0.001462,0.005329
15.880000,9.634809,0.226801,1.219389,-0.023288,0.001131,0.005535
15.890000,9.640767,0.243375,1.193227,-0.023701,0.000800,0.005742
15.900000,9.649682,0.264635,1.160651,-0.024115,0.000469,0.005949
15.910000,9.658598,0.285895,1.128075,-0.024210,0.001352,0.004331
15.920000,9.750000,0.336722,1.136696,-0.024519,0.001143,0.003186
15.930000,9.754707,0.291229,1.153370,-0.024727,0.000919,0.003897
15.940000,9.725700,0.201694,1.178218,-0.024516,0.002222,0.004133
15.950000,9.749222,0.143074,1.204976,-0.024724,0.000865,0.004550
15.960000,9.778143,0.397104,1.082447,-0.023562,0.000633,0.004451
15.970000,9.635455,0.397837,1.055480,-0.023670,0.001297,0.005877
15.980000,9.683445,0.232165,1.124993,-0.023991,0.001928,0.007316
15.990000,9.851340,0.176447,1.107627,-0.024086,0.001548,0.007221
16.000000,9.844626,0.209310,1.134836,-0.023903,0.002414,0.006545
16.010000,9.765254,0.276043,1.150741,-0.023486,0.004332,0.005377
16.020000,9.671466,0.317605,1.151384,-0.024038,0.003711,0.006048
16.030000,9.774896,0.203537,1.156703,-0.024408,0.002785,0.006872
16.040000,9.795633,0.116431,1.180054,-0.023980,0.002870,0.006872
16.050000,9.707177,0.164796,1.189233,-0.024428,0.002304,0.005651
16.060000,9.734026,0.307695,1.125928,-0.024286,0.002589,0.005651
16.070000,9.753249,0.197485,1.202818,-0.024143,0.002874,0.005651
16.080000,9.772471,0.087276,1.279708,-0.023838,0.001833,0.006913
16.090000,9.866079,0.095976,1.255655,-0.023521,0.001820,0.007262
16.100000,9.882481,0.193888,1.253042,-0.023059,0.002955,0.006565
16.110000,9.669656,0.295955,1.211000,-0.022453,0.003956,0.005965
16.120000,9.667240,0.201610,1.225651,-0.022703,0.002870,0.006633
16.130000,9.834044,0.113002,1.214296,-0.023085,0.001702,0.007107
16.140000,9.823763,0.103260,1.209876,-0.023567,0.000842,0.006378
16.150000,9.709804,0.121238,1.217125,-0.023296,0.001045,0.005092
16.160000,9.672018,0.155176,1.221613,-0.023078,0.001213,0.003994
16.170000,9.675291,0.197717,1.224612,-0.023216,0.001144,0.004178
16.180000,9.685500,0.217923,1.215395,-0.023353,0.001075,0.004362
16.190000,9.704050,0.211277,1.191489,-0.023491,0.001006,0.004545
16.200000,9.722599,0.204631,1.167583,-0.023629,0.000937,0.004729
16.210000,9.741149,0.197984,1.143677,-0.023767,0.000868,0.004913
16.220000,9.759698,0.191338,1.119770,-0.023905,0.000799,0.005097
16.230000,9.778248,0.184692,1.095864,-0.024173,0.001255,0.005438
16.240000,9.808583,0.286695,1.131478,-0.024583,0.002280,0.005950
16.250000,9.621607,0.330702,1.099737,-0.023983,0.004095,0.005529
16.260000,9.640225,0.258944,1.139086,-0.023780,0.003650,0.006000
16.270000,9.818502,0.230807,1.087885,-0.025604,0.002468,0.005514
16.280000,9.828962,0.237485,1.111712,-0.025298,0.002348,0.005498
16.290000,9.684988,0.246408,1.121040,-0.024065,0.003684,0.005498
16.300000,9.723274,0.321174,1.151115,-0.022552,0.004258,0.004819
16.310000,9.871707,0.296876,1.162324,-0.023322,0.002931,0.004312
16.320000,9.819313,0.220521,1.164259,-0.022479,0.003565,0.004993
16.330000,9.687779,0.196379,1.211875,-0.023237,0.004887,0.003890
16.340000,9.765153,0.315020,1.161278,-0.023300,0.004678,0.004276
16.350000,9.818412,0.330293,1.197856,-0.022496,0.002056,0.004299
16.360000,9.746416,0.206352,1.219694,-0.022937,0.002716,0.004520
16.370000,9.776926,0.154402,1.245760,-0.023344,0.002760,0.006994
16.380000,9.839756,0.213838,1.175485,-0.023798,0.002461,0.006457
16.390000,9.764548,0.299058,1.207805,-0.023476,0.002407,0.007599
16.400000,9.723317,0.137878,1.253985,-0.024339,-0.000020,0.008946
16.410000,9.899360,0.075591,1.214245,-0.023904,0.000876,0.008207
16.420000,9.843213,0.138482,1.207987,-0.024657,0.001347,0.007261
16.430000,9.594155,0.210535,1.205433,-0.025937,0.000478,0.005656
16.440000,9.675108,0.227501,1.168107,-0.025072,0.001170,0.005829
16.450000,9.814699,0.167170,1.181644,-0.024460,0.001655,0.005831
16.460000,9.869778,0.095125,1.186783,-0.024554,0.001560,0.005357
16.470000,9.651807,0.123269,1.195298,-0.024663,0.001168,0.004404
16.480000,9.665694,0.228159,1.131706,-0.024943,0.002103,0.004310
16.490000,9.730449,0.270656,1.155894,-0.024458,0.000682,0.004570
16.500000,9.703354,0.148336,1.162087,-0.024096,0.002347,0.006109
16.510000,9.775410,0.138956,1.151904,-0.023976,0.001583,0.005859
16.520000,9.787331,0.270973,1.122318,-0.023680,0.002079,0.005473
16.530000,9.761914,0.311861,1.139988,-0.023213,0.001935,0.005230
16.540000,9.727594,0.255914,1.158088,-0.023213,0.001427,0.005611
16.550000,9.693274,0.199968,1.176189,-0.023213,0.000919,0.005992
16.560000,9.884294,0.134973,1.132125,-0.023361,0.001751,0.005664
16.570000,9.795746,0.234034,1.124648,-0.023574,0.003171,0.005025
16.580000,9.707199,0.333095,1.117172,-0.024120,0.002652,0.005003
16.590000,9.799717,0.311577,1.137474,-0.024256,0.001833,0.004895
16.600000,9.880011,0.210620,1.155213,-0.023986,0.001857,0.004434
16.610000,9.784887,0.118807,1.201119,-0.024292,0.002621,0.004586
16.620000,9.743857,0.267947,1.175657,-0.024579,0.003335,0.004740
16.630000,9.745351,0.306903,1.165081,-0.024326,0.002576,0.004908
16.640000,9.737457,0.205479,1.219381,-0.024048,0.001958,0.005338
16.650000,9.753340,0.123852,1.260172,-0.023682,0.001836,0.006680
16.660000,9.839694,0.247750,1.223777,-0.023232,0.003403,0.007264
16.670000,9.707017,0.323398,1.207235,-0.023611,0.003527,0.007543
16.680000,9.633088,0.262268,1.202611,-0.023162,0.002852,0.008196
16.690000,9.702530,0.192276,1.219552,-0.023398,0.001304,0.008277
16.700000,9.820305,0.132143,1.207098,-0.023794,0.002293,0.006792
16.710000,9.864417,0.137437,1.198958,-0.024023,0.002598,0.006051
16.720000,9.862355,0.183741,1.193521,-0.024109,0.002319,0.005943
16.730000,9.860293,0.230045,1.188085,-0.024194,0.002041,0.005836
16.740000,9.857535,0.251839,1.178792,-0.024280,0.001762,0.005729
16.750000,9.853818,0.239893,1.164192,-0.024366,0.001483,0.005622
16.760000,9.850102,0.227947,1.149591,-0.024452,0.001204,0.005514
16.770000,9.846385,0.216001,1.134991,-0.024538,0.000925,0.005407
16.780000,9.842669,0.204056,1.120390,-0.024497,0.000989,0.005372
16.790000,9.838952,0.192110,1.105789,-0.024283,0.001524,0.005436
16.800000,9.835236,0.180164,1.091189,-0.024069,0.002059,0.005500
16.810000,9.806465,0.182734,1.101673,-0.023855,0.002594,0.005565
16.820000,9.764457,0.192974,1.125412,-0.023641,0.003129,0.005629
16.830000,9.722450,0.203214,1.149150,-0.023427,0.003664,0.005693
16.840000,9.680442,0.213454,1.172889,-0.023213,0.004199,0.005757
16.850000,9.638434,0.223694,1.196627,-0.023474,0.004013,0.006010
16.860000,9.658757,0.242810,1.184233,-0.024475,0.002468,0.006125
16.870000,9.734141,0.261448,1.142845,-0.024896,0.001563,0.005433
16.880000,9.764981,0.201290,1.152744,-0.024993,0.002532,0.003688
16.890000,9.697592,0.165937,1.206740,-0.024404,0.002947,0.003283
16.900000,9.682912,0.237314,1.204713,-0.024338,0.001512,0.004624
16.910000,9.807953,0.362878,1.241469,-0.024571,-0.000131,0.005956
16.920000,9.803759,0.245630,1.280086,-0.024173,0.000427,0.005956
16.930000,9.782576,0.141692,1.290681,-0.023809,0.000964,0.005989
16.940000,9.783214,0.143764,1.266941,-0.023694,0.001350,0.006260
16.950000,9.783851,0.145835,1.243200,-0.023578,0.001737,0.006530
16.960000,9.784489,0.147906,1.219460,-0.023462,0.002123,0.006801
16.970000,9.774866,0.154903,1.191433,-0.023125,0.001963,0.006624
16.980000,9.751557,0.168471,1.157689,-0.022638,0.001035,0.005686
16.990000,9.676753,0.211139,1.180759,-0.022999,0.001847,0.006047
17.000000,9.608466,0.266787,1.210268,-0.022351,0.002812,0.005754
17.010000,9.796869,0.264989,1.148056,-0.022940,0.001197,0.004589
17.020000,9.834026,0.097400,1.162406,-0.023985,-0.001204,0.003208
17.030000,9.718560,0.112742,1.161975,-0.024568,0.000026,0.003273
17.040000,9.691051,0.215127,1.162717,-0.025150,0.001257,0.003337
17.050000,9.749088,0.360649,1.110655,-0.023957,0.002330,0.004103
17.060000,9.765215,0.203184,1.152001,-0.023100,0.002186,0.004983
17.070000,9.785336,0.079213,1.183216,-0.023170,0.001213,0.005679
17.080000,9.835730,0.209197,1.137621,-0.023819,0.000997,0.006054
17.090000,9.752147,0.325737,1.102758,-0.024332,0.002135,0.006131
17.100000,9.734892,0.263664,1.114021,-0.022605,0.003539,0.006671
17.110000,9.858440,0.131686,1.148003,-0.024087,0.001823,0.005901
17.120000,9.973743,0.087223,1.167220,-0.024534,0.001413,0.005470
17.130000,9.738359,0.173485,1.120901,-0.023884,0.002312,0.005420
17.140000,9.744017,0.206836,1.129437,-0.023235,0.003212,0.005370
17.150000,9.749675,0.240187,1.137974,-0.023099,0.003439,0.005345
17.160000,9.755333,0.273538,1.146510,-0.023485,0.002983,0.005345
17.170000,9.760990,0.306889,1.155046,-0.023871,0.002527,0.005345
17.180000,9.766648,0.340240,1.163583,-0.024257,0.002070,0.005345
17.190000,9.744946,0.402152,1.156069,-0.024392,0.001764,0.005429
17.200000,9.685671,0.220698,1.207683,-0.023472,0.001859,0.005710
17.210000,9.746131,0.103222,1.226756,-0.023351,0.001356,0.005498
17.220000,9.908836,0.186606,1.233715,-0.023272,0.002060,0.005498
17.230000,9.686294,0.316205,1.171326,-0.023286,0.002450,0.005547
17.240000,9.663473,0.241943,1.221002,-0.023594,0.001835,0.005752
17.250000,9.826844,0.172639,1.188826,-0.021467,0.002092,0.006378
17.260000,9.926126,0.129804,1.223655,-0.022010,0.001807,0.006149
17.270000,9.887498,0.118006,1.217560,-0.022553,0.001521,0.005920
17.280000,9.832019,0.110000,1.206464,-0.023096,0.001235,0.005692
17.290000,9.776540,0.101994,1.195368,-0.023639,0.000949,0.005463
17.300000,9.721062,0.093988,1.184273,-0.024181,0.000664,0.005235
17.310000,9.719181,0.151479,1.186269,-0.023701,0.001957,0.004859
17.320000,9.791435,0.351564,1.150620,-0.023295,0.002068,0.004652
17.330000,9.734481,0.287182,1.167602,-0.023256,0.002378,0.005345
17.340000,9.659112,0.178848,1.194133,-0.023507,0.002295,0.005930
17.350000,9.744610,0.170299,1.147312,-0.023802,0.001795,0.006168
17.360000,9.808804,0.225752,1.136661,-0.024098,0.001276,0.006391
17.370000,9.839833,0.287658,1.144271,-0.023065,0.004015,0.006813
17.380000,9.831010,0.233619,1.123317,-0.023018,0.003988,0.006486
17.390000,9.828146,0.186250,1.107999,-0.023145,0.003479,0.006041
17.400000,9.872695,0.191948,1.137525,-0.023289,0.002749,0.006185
17.410000,9.650918,0.240149,1.151126,-0.023455,0.004074,0.006032
17.420000,9.731290,0.255170,1.162029,-0.024133,0.001296,0.005700
17.430000,9.817256,0.173927,1.162974,-0.023761,0.001482,0.005824
17.440000,9.844987,0.172823,1.166653,-0.023389,0.001668,0.005948
17.450000,9.828606,0.232424,1.172404,-0.023305,0.002224,0.005835
17.460000,9.812224,0.292025,1.178155,-0.023241,0.002804,0.005706
17.470000,9.792683,0.316973,1.189213,-0.023874,0.002559,0.005981
17.480000,9.752584,0.116481,1.234799,-0.025036,0.001687,0.006562
17.490000,9.805267,0.163695,1.132981,-0.024652,0.002467,0.006173
17.500000,9.717109,0.205915,1.139885,-0.024273,0.003015,0.006475
17.510000,9.628950,0.248135,1.146788,-0.023898,0.003515,0.006913
17.520000,9.774227,0.132508,1.250592,-0.024587,0.001218,0.007107
17.530000,9.903925,0.086173,1.204123,-0.024587,0.003407,0.006592
17.540000,9.811438,0.147769,1.201494,-0.024042,0.002967,0.006385
17.550000,9.764551,0.201252,1.182418,-0.023711,0.002319,0.006143
17.560000,9.717663,0.254736,1.163342,-0.023823,0.001534,0.005806
17.570000,9.670776,0.308220,1.144266,-0.023935,0.000750,0.005470
17.580000,9.692535,0.217134,1.192592,-0.024207,0.000343,0.004827
17.590000,9.722605,0.143918,1.231063,-0.024573,0.000160,0.004004
17.600000,9.758140,0.405276,1.157285,-0.024038,0.000735,0.004449
17.610000,9.732248,0.289685,1.152389,-0.023350,0.002056,0.004698
17.620000,9.742087,0.126224,1.193102,-0.023440,0.002878,0.005404
17.630000,9.816148,0.130270,1.190856,-0.023948,0.000443,0.006215
17.640000,9.836132,0.258999,1.138470,-0.023327,0.001929,0.005720
17.650000,9.700792,0.371252,1.119989,-0.023513,0.001993,0.005875
17.660000,9.697940,0.232535,1.153370,-0.023634,0.000803,0.006832
17.670000,9.913625,0.150280,1.167327,-0.023444,0.001131,0.006542
17.680000,9.862159,0.217508,1.147516,-0.023359,0.001726,0.005990
17.690000,9.768653,0.307118,1.122909,-0.023274,0.002321,0.005437
17.700000,9.675147,0.396728,1.098302,-0.023267,0.002629,0.005116
17.710000,9.694283,0.380881,1.105272,-0.023461,0.002202,0.005387
17.720000,9.720127,0.358755,1.114123,-0.023655,0.001775,0.005659
17.730000,9.745971,0.336628,1.122974,-0.023849,0.001348,0.005931
17.740000,9.754309,0.369533,1.160167,-0.023976,0.001323,0.005927
17.750000,9.691620,0.286493,1.171403,-0.023976,0.002059,0.005401
17.760000,9.708789,0.129014,1.208397,-0.022643,0.003211,0.006532
17.770000,9.811945,0.121767,1.206189,-0.022464,0.001517,0.007691
17.780000,9.851873,0.160704,1.185902,-0.022493,0.001485,0.007479
17.790000,9.810468,0.166899,1.198086,-0.022542,0.001605,0.007142
17.800000,9.769063,0.173094,1.210270,-0.022590,0.001726,0.006805
17.810000,9.727658,0.179290,1.222454,-0.022638,0.001846,0.006467
17.820000,9.686253,0.185485,1.234638,-0.022686,0.001967,0.006130
17.830000,9.644848,0.191680,1.246822,-0.022734,0.002087,0.005793
17.840000,9.712973,0.266846,1.159600,-0.023103,0.002602,0.005418
17.850000,9.745973,0.275824,1.133845,-0.023064,0.002791,0.005388
17.860000,9.751701,0.252048,1.143303,-0.022882,0.002843,0.005440
17.870000,9.757428,0.228272,1.152761,-0.022700,0.002895,0.005492
17.880000,9.763155,0.204495,1.162220,-0.022518,0.002947,0.005544
17.890000,9.768882,0.180719,1.171678,-0.022336,0.002999,0.005596
17.900000,9.774609,0.156943,1.181137,-0.022154,0.003051,0.005647
17.910000,9.780337,0.133167,1.190595,-0.022959,0.002090,0.004612
17.920000,9.750529,0.216598,1.158490,-0.023824,0.001070,0.003514
17.930000,9.684695,0.270715,1.164789,-0.023824,0.001937,0.004525
17.940000,9.768024,0.190380,1.166341,-0.023623,0.001684,0.004481
17.950000,9.844534,0.188663,1.189954,-0.023568,0.001872,0.004429
17.960000,9.744969,0.218055,1.156317,-0.023664,0.002549,0.004429
17.970000,9.722842,0.260096,1.126034,-0.023887,0.002294,0.004601
17.980000,9.789762,0.304495,1.124747,-0.024119,0.001969,0.004787
17.990000,9.767031,0.241549,1.141243,-0.024351,0.001644,0.004973
18.000000,9.718734,0.147993,1.162809,-0.023986,0.001696,0.004310
18.010000,9.726578,0.278261,1.166630,-0.023285,0.001958,0.003171
18.020000,9.746171,0.359124,1.168699,-0.023061,0.002176,0.003435
18.030000,9.763238,0.285416,1.174513,-0.022891,0.002388,0.003860
18.040000,9.780305,0.211708,1.180327,-0.022721,0.002600,0.004284
18.050000,9.807402,0.214240,1.172154,-0.024191,0.002229,0.004706
18.060000,9.683125,0.343963,1.113501,-0.023872,0.003111,0.005241
18.070000,9.678506,0.215604,1.183165,-0.023366,0.001484,0.006106
18.080000,9.828916,0.138236,1.171153,-0.024016,0.001037,0.006557
18.090000,9.942328,0.135424,1.222146,-0.023122,0.001229,0.005625
18.100000,9.637042,0.195829,1.146394,-0.023142,0.002014,0.005075
18.110000,9.707079,0.170212,1.154156,-0.023377,0.002007,0.004941
18.120000,9.784622,0.142929,1.163670,-0.023562,0.001859,0.004830
18.130000,9.862165,0.115645,1.173183,-0.023747,0.001711,0.004719
18.140000,9.855125,0.133868,1.166923,-0.023932,0.001563,0.004608
18.150000,9.801684,0.177056,1.152009,-0.024202,0.001161,0.004638
18.160000,9.748243,0.220245,1.137095,-0.024499,0.000678,0.004712
18.170000,9.694801,0.263433,1.122181,-0.024797,0.000194,0.004787
18.180000,9.785721,0.155686,1.158118,-0.025094,-0.000289,0.004861
18.190000,9.827897,0.211865,1.175264,-0.024257,0.000918,0.004605
18.200000,9.780681,0.288988,1.174899,-0.023238,0.001476,0.005218
18.210000,9.713912,0.249626,1.180731,-0.023314,0.001325,0.005748
18.220000,9.722440,0.204258,1.182504,-0.023347,0.001388,0.005961
18.230000,9.811184,0.152491,1.179954,-0.023289,0.001911,0.005496
18.240000,9.823891,0.131343,1.182924,-0.023231,0.002435,0.005031
18.250000,9.623607,0.222712,1.191555,-0.023291,0.002493,0.004900
18.260000,9.627502,0.252151,1.177924,-0.023403,0.002343,0.004919
18.270000,9.631396,0.281590,1.164292,-0.023515,0.002193,0.004937
18.280000,9.635291,0.311029,1.150661,-0.023628,0.002043,0.004956
18.290000,9.639186,0.340468,1.137030,-0.023740,0.001893,0.004975
18.300000,9.662565,0.339817,1.127334,-0.023852,0.001744,0.004993
18.310000,9.723504,0.281161,1.125227,-0.023965,0.001594,0.005012
18.320000,9.784443,0.222504,1.123120,-0.024077,0.001444,0.005031
18.330000,9.845383,0.163848,1.121012,-0.023740,0.001842,0.004962
18.340000,9.701488,0.313920,1.150923,-0.024719,0.001073,0.006646
18.350000,9.708203,0.294574,1.149647,-0.024282,0.001559,0.006109
18.360000,9.846422,0.216082,1.138337,-0.024081,0.001203,0.005908
18.370000,9.826812,0.129243,1.110252,-0.024112,0.001547,0.006054
18.380000,9.712476,0.151096,1.133902,-0.024705,0.001872,0.006602
18.390000,9.657344,0.197260,1.182723,-0.024912,0.001941,0.006395
18.400000,9.763953,0.232360,1.185245,-0.024708,0.001745,0.006117
18.410000,9.786325,0.223266,1.200594,-0.023865,0.001266,0.005647
18.420000,9.771329,0.201946,1.218861,-0.023386,0.001458,0.004977
18.430000,9.819024,0.345551,1.158205,-0.023963,0.000684,0.004734
18.440000,9.808818,0.324926,1.108203,-0.024253,0.000515,0.005459
18.450000,9.704463,0.117774,1.190643,-0.023866,0.000617,0.005692
18.460000,9.684482,0.162197,1.223038,-0.023418,0.000369,0.005245
18.470000,9.664502,0.206619,1.255433,-0.022971,0.000120,0.004797
18.480000,9.649300,0.243434,1.287327,-0.022879,0.000437,0.005018
18.490000,9.696560,0.180800,1.312666,-0.023282,0.001242,0.005922
18.500000,9.743820,0.118166,1.338004,-0.024170,0.001932,0.007007
18.510000,9.856838,0.243962,1.234676,-0.024286,0.001717,0.006983
18.520000,9.821303,0.273548,1.156663,-0.024074,0.001117,0.006490
18.530000,9.785768,0.303133,1.078651,-0.023863,0.000517,0.005996
18.540000,9.750967,0.328733,1.002900,-0.023651,-0.000083,0.005502
18.550000,9.768573,0.070020,1.088486,-0.023368,-0.000533,0.004741
18.560000,9.736881,0.091501,1.174725,-0.022966,-0.000734,0.003536
18.570000,9.702733,0.183888,1.246686,-0.023690,-0.000216,0.003908
18.580000,9.737936,0.251685,1.224847,-0.024435,0.000432,0.004469
18.590000,9.756023,0.304862,1.192249,-0.024435,0.001106,0.004682
