time_s,accel_x,accel_y,accel_z,gyro_x,gyro_y,gyro_z
0.000000,9.387878,0.152084,0.021555,-0.015119,0.007330,0.017257
0.010000,9.387878,0.152084,0.021555,-0.015119,0.007330,0.017257
0.020000,9.387878,0.152084,0.021555,-0.015119,0.007330,0.017257
0.030000,9.387878,0.152084,0.021555,-0.015119,0.007330,0.017257
0.040000,9.387878,0.152084,0.021555,-0.015119,0.007330,0.017257
0.050000,9.387878,0.152084,0.021555,-0.015119,0.007330,0.017257
0.060000,9.387878,0.152084,0.021555,-0.015119,0.007330,0.017257
0.070000,9.387878,0.152084,0.021555,-0.015119,0.007330,0.017257
0.080000,9.387878,0.152084,0.021555,-0.015119,0.007330,0.017257
0.090000,9.387878,0.152084,0.021555,-0.015119,0.007330,0.017257
0.100000,9.387878,0.152084,0.021555,-0.015119,0.007330,0.017257
0.110000,9.387878,0.152084,0.021555,-0.015119,0.007330,0.017257
0.120000,9.387878,0.152084,0.021555,-0.015119,0.007330,0.017257
0.130000,9.387878,0.152084,0.021555,-0.015119,0.007330,0.017257
0.140000,9.387878,0.152084,0.021555,-0.015119,0.007330,0.017257
0.150000,9.387878,0.152084,0.021555,-0.015119,0.007330,0.017257
0.160000,9.387878,0.152084,0.021555,-0.015119,0.007330,0.017257
0.170000,9.387878,0.152084,0.021555,-0.015119,0.007330,0.017257
0.180000,9.387878,0.152084,0.021555,-0.015119,0.007330,0.017257
0.190000,9.387878,0.152084,0.021555,-0.015119,0.007330,0.017257
0.200000,9.387878,0.152084,0.021555,-0.015119,0.007330,0.017257
0.210000,9.387878,0.152084,0.021555,-0.015119,0.007330,0.017257
0.220000,9.387878,0.152084,0.021555,-0.015119,0.007330,0.017257
0.230000,9.387878,0.152084,0.021555,-0.015119,0.007330,0.017257
0.240000,9.387878,0.152084,0.021555,-0.015119,0.007330,0.017257
0.250000,9.387878,0.152084,0.021555,-0.015119,0.007330,0.017257
0.260000,9.387878,0.152084,0.021555,-0.015119,0.007330,0.017257
0.270000,9.387878,0.152084,0.021555,-0.015119,0.007330,0.017257
0.280000,9.387878,0.152084,0.021555,-0.015119,0.007330,0.017257
0.290000,9.387878,0.152084,0.021555,-0.015119,0.007330,0.017257
0.300000,9.387878,0.152084,0.021555,-0.015119,0.007330,0.017257
0.310000,9.387878,0.152084,0.021555,-0.015119,0.007330,0.017257
0.320000,9.387878,0.152084,0.021555,-0.015119,0.007330,0.017257
0.330000,9.387878,0.152084,0.021555,-0.015119,0.007330,0.017257
0.340000,9.387878,0.152084,0.021555,-0.015119,0.007330,0.017257
0.350000,9.387878,0.152084,0.021555,-0.015119,0.007330,0.017257
0.360000,9.387878,0.152084,0.021555,-0.015119,0.007330,0.017257
0.370000,9.387878,0.152084,0.021555,-0.015119,0.007330,0.017257
0.380000,9.387878,0.152084,0.021555,-0.015119,0.007330,0.017257
0.390000,9.387878,0.152084,0.021555,-0.015119,0.007330,0.017257
0.400000,9.387878,0.152084,0.021555,-0.015119,0.007330,0.017257
0.410000,9.387878,0.152084,0.021555,-0.015119,0.007330,0.017257
0.420000,9.387878,0.152084,0.021555,-0.015119,0.007330,0.017257
0.430000,9.387878,0.152084,0.021555,-0.015119,0.007330,0.017257
0.440000,9.387878,0.152084,0.021555,-0.015119,0.007330,0.017257
0.450000,9.387878,0.152084,0.021555,-0.015119,0.007330,0.017257
0.460000,9.384388,0.230625,-0.008698,-0.015119,0.007330,0.017257
0.470000,9.761347,0.309108,-0.032078,-0.015560,0.007079,0.016942
0.480000,10.115464,0.385297,-0.029789,-0.016040,0.006804,0.016599
0.490000,10.031254,0.415181,0.287695,-0.017666,0.002660,0.020339
0.500000,9.910957,0.544547,0.252589,-0.017400,0.003827,0.024252
0.510000,10.182686,0.781624,0.189180,-0.016397,0.003674,0.027721
0.520000,10.103080,0.624706,0.157441,-0.015719,0.002432,0.033671
0.530000,10.421437,0.480560,0.269676,-0.015269,0.004712,0.038607
0.540000,10.627334,0.417383,0.268341,-0.014875,0.006051,0.043647
0.550000,10.342262,0.294251,0.088488,-0.013961,0.001489,0.044867
0.560000,9.791785,-0.052220,-0.106093,-0.012605,0.002737,0.043460
0.570000,9.736196,-0.347698,0.166374,-0.012347,-0.006060,0.037776
0.580000,9.733600,-0.442373,-0.093263,-0.012806,-0.001564,0.033647
0.590000,9.762954,-0.140839,0.198285,-0.011914,-0.006500,0.024373
0.600000,9.759894,-0.042879,-0.007989,-0.010953,-0.001187,0.014036
0.610000,9.767811,-0.199739,-0.288479,-0.010533,0.001872,0.005803
0.620000,9.373586,-0.257809,-0.206838,-0.010026,0.001656,0.000481
0.630000,9.608576,0.021904,-0.339308,-0.009671,0.000665,-0.000705
0.640000,9.173097,0.054679,-0.287473,-0.009954,0.003652,-0.003236
0.650000,9.462899,0.042780,-0.083140,-0.009705,0.001494,-0.003404
0.660000,9.062395,0.049974,-0.160054,-0.009503,0.007151,-0.001551
0.670000,9.649538,0.118643,-0.074235,-0.008992,0.004727,0.001787
0.680000,9.479017,0.134429,-0.062912,-0.008876,0.010708,0.005267
0.690000,9.833218,0.270131,0.050865,-0.009877,0.004872,0.009186
0.700000,9.428396,0.334660,-0.154549,-0.011175,0.012402,0.013341
0.710000,9.594974,0.201902,-0.026793,-0.011900,0.007386,0.016259
0.720000,9.899177,0.170133,-0.082765,-0.012028,0.010165,0.018098
0.730000,10.208722,0.281132,0.134823,-0.012773,0.005655,0.018326
0.740000,10.171829,0.385297,-0.049969,-0.014027,0.010954,0.018168
0.750000,9.964704,0.287635,0.377215,-0.015201,0.001773,0.017741
0.760000,9.948092,0.325110,0.092355,-0.016035,0.006119,0.018262
0.770000,10.008856,0.203784,-0.000312,-0.016962,0.005775,0.017006
0.780000,9.922088,0.149549,0.135188,-0.018265,0.005228,0.016546
0.790000,10.338903,0.531030,-0.122757,-0.019853,0.005525,0.018270
0.800000,9.808199,0.423634,0.023712,-0.020786,0.006109,0.018225
0.810000,10.264817,0.122601,-0.202692,-0.020525,0.004917,0.017094
0.820000,9.554749,-0.040785,0.110031,-0.020140,0.004951,0.013707
0.830000,10.387231,0.132446,0.043071,-0.018786,0.000314,0.011303
0.840000,9.759035,0.401759,0.049751,-0.018145,0.005486,0.010083
0.850000,9.864289,0.182952,0.076630,-0.017615,0.000954,0.007680
0.860000,9.569809,-0.067386,0.001286,-0.015488,0.005111,0.005803
0.870000,10.077689,0.057908,0.151870,-0.013400,-0.001289,0.006110
0.880000,10.071143,0.306675,0.080546,-0.012283,0.002259,0.007918
0.890000,10.088379,0.434825,0.154314,-0.011430,-0.002418,0.011464
0.900000,9.807168,0.488304,0.219745,-0.011669,-0.002164,0.016302
0.910000,9.990493,0.509592,0.128341,-0.011098,-0.002531,0.021884
0.920000,10.062860,0.368065,0.014390,-0.010650,-0.000595,0.025905
0.930000,10.212627,0.147037,-0.177242,-0.010465,-0.000394,0.026475
0.940000,9.909565,-0.077871,-0.069391,-0.010852,-0.003049,0.022969
0.950000,9.670235,-0.193311,0.136313,-0.010852,-0.006529,0.018674
0.960000,9.762822,-0.168311,0.125495,-0.010138,-0.008021,0.013811
0.970000,9.792167,-0.071147,0.198949,-0.010855,-0.009980,0.005566
0.980000,9.369774,0.026893,-0.015431,-0.011148,-0.005062,-0.000504
0.990000,9.772265,0.229094,-0.008738,-0.010657,-0.009153,-0.001844
1.000000,9.230591,0.346046,-0.214031,-0.011200,-0.003770,-0.001726
1.010000,9.757958,0.425332,-0.033674,-0.012065,-0.012905,0.002729
1.020000,9.546637,0.437909,0.134255,-0.012065,-0.008545,0.005261
1.030000,9.793362,0.602090,0.074207,-0.012020,-0.007506,0.011473
1.040000,9.613190,0.563038,-0.317187,-0.012101,0.000199,0.016293
1.050000,9.746225,0.408496,-0.299753,-0.012646,-0.002310,0.019238
1.060000,9.920958,0.454432,-0.209761,-0.011943,-0.003170,0.026730
1.070000,9.308549,0.414160,0.042740,-0.013612,0.003739,0.028192
1.080000,9.448350,0.320046,0.034517,-0.015857,0.006139,0.030204
1.090000,9.543326,0.184983,0.052626,-0.017559,0.008130,0.030883
1.100000,9.581988,-0.001525,0.103817,-0.018362,0.009444,0.029350
1.110000,9.935840,-0.101881,0.057529,-0.018937,0.009715,0.027070
1.120000,9.795498,-0.095251,0.015708,-0.018749,0.006696,0.021708
1.130000,9.741381,-0.039543,0.094430,-0.017719,0.000704,0.010942
1.140000,10.005092,0.027108,0.266269,-0.016798,0.001683,0.004351
1.150000,10.058225,-0.057905,0.064668,-0.015561,0.002765,0.001216
1.160000,10.081125,-0.130607,-0.083553,-0.013826,-0.002971,-0.001852
1.170000,9.916273,-0.126852,0.099730,-0.012217,-0.008044,-0.004395
1.180000,9.862345,-0.044194,0.216575,-0.011259,-0.009639,-0.004182
1.190000,9.986053,0.164821,0.227026,-0.010008,-0.011969,-0.002448
1.200000,10.109760,0.373837,0.237477,-0.008644,-0.014578,-0.000136
1.210000,9.722606,0.282962,0.009193,-0.007258,-0.014998,0.002846
1.220000,10.021262,0.160805,0.110224,-0.007600,-0.020143,0.007554
1.230000,9.751817,-0.033565,0.101012,-0.007259,-0.015592,0.008237
1.240000,10.035596,0.055116,0.077284,-0.005858,-0.016416,0.008131
1.250000,10.048541,0.108884,0.074377,-0.006015,-0.015318,0.006484
1.260000,10.061602,0.005236,0.161395,-0.006109,-0.014958,0.003196
1.270000,9.763966,-0.288973,0.206359,-0.006827,-0.011782,-0.002931
1.280000,10.354309,0.032875,0.068647,-0.007458,-0.013729,-0.007261
1.290000,9.724852,0.029836,0.137280,-0.009320,-0.008114,-0.012989
1.300000,9.861408,0.115996,0.116704,-0.009948,-0.010778,-0.014168
1.310000,9.647746,0.067847,0.121433,-0.010384,-0.009470,-0.016566
1.320000,9.640746,-0.021754,0.412338,-0.012005,-0.011548,-0.019334
1.330000,9.894635,0.025690,0.273373,-0.011029,-0.008090,-0.019925
1.340000,9.648304,0.092058,0.152636,-0.010690,-0.004603,-0.023160
1.350000,9.877969,0.030550,0.260586,-0.010690,-0.011905,-0.026081
1.360000,9.648484,0.148321,0.325809,-0.010091,-0.009515,-0.026949
1.370000,9.808698,0.338812,0.310551,-0.009688,-0.008958,-0.025970
1.380000,9.757608,0.360027,0.121197,-0.009774,-0.003015,-0.023416
1.390000,9.839100,0.402792,0.132096,-0.009889,-0.003215,-0.020190
1.400000,9.651521,0.391904,0.275183,-0.010078,-0.006991,-0.016980
1.410000,9.856685,0.113206,0.361824,-0.008803,-0.002565,-0.015003
1.420000,9.728080,0.115965,0.391772,-0.008580,0.000255,-0.014280
1.430000,9.439769,0.253717,0.333202,-0.010222,0.006443,-0.013178
1.440000,10.020434,0.443449,0.296596,-0.011035,0.003103,-0.010274
1.450000,9.514648,0.373276,0.482770,-0.011946,0.006548,-0.010458
1.460000,9.750126,0.277596,0.399454,-0.011687,0.007787,-0.007597
1.470000,9.466516,0.479836,0.413208,-0.012848,0.010140,-0.005101
1.480000,9.485415,0.475687,0.323319,-0.012964,0.011425,-0.006385
1.490000,9.771996,0.599183,0.387428,-0.013607,0.007519,-0.004715
1.500000,9.640009,0.574008,0.394866,-0.014599,0.010217,-0.001752
1.510000,9.814587,0.781099,0.477140,-0.014203,0.006385,0.004819
1.520000,9.768336,0.597389,0.603164,-0.014429,0.008183,0.008163
1.530000,9.854971,0.389879,0.680393,-0.014801,0.007025,0.010823
1.540000,9.832633,0.539285,0.437177,-0.014795,0.008737,0.014204
1.550000,9.894252,0.542627,0.417875,-0.014362,0.013070,0.016912
1.560000,10.001846,0.416522,0.408842,-0.016580,0.008505,0.019494
1.570000,9.814663,0.267025,0.620311,-0.016707,0.007912,0.020982
1.580000,10.188579,0.508656,0.776673,-0.015007,0.004888,0.025598
1.590000,9.987301,0.547496,0.401410,-0.014960,0.012199,0.027433
1.600000,9.944287,0.373763,0.524866,-0.015239,0.004201,0.026943
1.610000,9.751215,0.159092,0.627543,-0.016305,0.002785,0.026827
1.620000,9.587411,0.040039,0.691291,-0.014744,0.004345,0.024598
1.630000,9.734742,0.018455,0.554616,-0.013514,0.007023,0.021619
1.640000,9.941460,-0.075296,0.397898,-0.012640,0.008230,0.017510
1.650000,9.930546,-0.252021,0.550896,-0.011952,0.002369,0.011221
1.660000,9.775661,-0.192355,0.690824,-0.010843,0.002927,0.005754
1.670000,9.743742,-0.192751,0.553876,-0.010638,0.005433,0.000719
1.680000,9.763409,-0.223322,0.607099,-0.010445,0.003205,-0.002434
1.690000,9.772330,-0.174678,0.649618,-0.010258,0.004155,-0.004696
1.700000,9.884689,-0.041310,0.503005,-0.009413,0.005633,-0.005963
1.710000,9.602707,-0.137212,0.464586,-0.009484,0.004991,-0.009874
1.720000,9.485632,-0.214121,0.667645,-0.009666,0.002169,-0.011114
1.730000,9.589005,0.127019,0.681511,-0.009075,0.003149,-0.009027
1.740000,9.570068,-0.097659,0.475447,-0.009010,0.007288,-0.010953
1.750000,9.615967,-0.087789,0.566029,-0.009162,0.003705,-0.011605
1.760000,9.525757,0.062414,0.507338,-0.010366,0.008780,-0.011155
1.770000,9.629048,0.263582,0.431438,-0.011151,0.010879,-0.008058
1.780000,9.608059,0.212934,0.406479,-0.013489,0.011332,-0.007738
1.790000,9.441505,0.202540,0.429650,-0.014170,0.014115,-0.006707
1.800000,9.381201,0.261136,0.471037,-0.014834,0.017692,-0.004226
1.810000,9.514667,0.262522,0.523483,-0.014867,0.018848,-0.002083
1.820000,9.622789,0.245365,0.534869,-0.017473,0.020868,-0.001209
1.830000,9.637092,0.274626,0.739242,-0.019828,0.018531,-0.000802
1.840000,9.500816,0.309230,0.763029,-0.020487,0.020745,-0.000069
1.850000,9.345963,0.234657,0.604084,-0.021170,0.023493,0.000131
1.860000,9.576882,0.331310,0.487755,-0.021228,0.021736,0.000611
1.870000,9.558533,0.393618,0.563380,-0.021304,0.022293,0.000916
1.880000,9.765964,0.318463,0.673327,-0.021008,0.023027,0.000417
1.890000,9.905725,0.424313,0.699703,-0.020349,0.023888,0.001822
1.900000,9.632839,0.507414,0.540932,-0.020981,0.026989,0.003994
1.910000,9.749567,0.523431,0.654205,-0.021305,0.025392,0.005972
1.920000,9.666077,0.391043,0.688400,-0.020833,0.027904,0.008703
1.930000,9.586391,0.399371,0.738846,-0.020048,0.026696,0.011976
1.940000,9.697471,0.657039,0.644378,-0.019383,0.028359,0.017878
1.950000,9.755015,0.735482,0.718920,-0.018727,0.028148,0.023025
1.960000,9.784100,0.632905,0.882214,-0.018091,0.024118,0.026631
1.970000,9.894462,0.670886,0.787259,-0.018791,0.025983,0.031325
1.980000,9.599719,0.573787,0.683848,-0.018548,0.027567,0.040143
1.990000,9.853003,0.549134,1.019804,-0.017868,0.023366,0.043217
2.000000,9.963989,0.394976,0.938385,-0.017702,0.026800,0.044496
2.010000,10.107457,0.333832,0.966939,-0.019048,0.023117,0.045728
2.020000,9.916350,0.453170,0.794658,-0.019901,0.024383,0.048038
2.030000,9.765915,0.257679,0.830877,-0.020517,0.018985,0.047158
2.040000,9.890486,-0.024211,1.068686,-0.020234,0.015289,0.044457
2.050000,9.914037,-0.086368,0.929673,-0.019839,0.017370,0.041665
2.060000,10.026872,-0.247409,0.805002,-0.019111,0.015275,0.031152
2.070000,10.107074,-0.158106,0.991590,-0.019653,0.010945,0.026483
2.080000,10.063903,-0.004034,1.153863,-0.019089,0.008546,0.021818
2.090000,10.041383,-0.074779,1.126617,-0.018970,0.007352,0.017779
2.100000,10.264233,0.009775,0.985870,-0.019115,0.007585,0.016086
2.110000,10.121951,0.071360,0.750998,-0.019222,0.010579,0.015017
2.120000,9.992720,-0.041925,0.931308,-0.018522,0.002631,0.013603
2.130000,10.149353,0.027753,0.994121,-0.017595,0.000332,0.014938
2.140000,10.020896,-0.057550,0.932385,-0.017227,0.001791,0.014844
2.150000,10.200164,-0.101911,0.904034,-0.015717,-0.000465,0.015317
2.160000,9.921893,-0.253770,0.896286,-0.016281,0.000335,0.013424
2.170000,10.012349,-0.210943,1.137220,-0.017158,-0.005363,0.011289
2.180000,9.959725,-0.183081,0.859759,-0.017132,0.000651,0.008601
2.190000,9.804518,-0.293161,0.892895,-0.017610,-0.000859,0.006072
2.200000,9.900961,-0.302719,0.892101,-0.017774,-0.004406,0.003195
2.210000,9.562398,-0.170557,0.834139,-0.016818,-0.002066,-0.004424
2.220000,9.489068,-0.057993,0.770429,-0.017131,-0.002234,-0.004847
2.230000,9.911447,0.011451,0.725498,-0.018696,-0.005485,-0.006143
2.240000,9.625031,-0.087268,0.876900,-0.019285,-0.003295,-0.009135
2.250000,9.650619,0.120579,0.933416,-0.020178,-0.005881,-0.008714
2.260000,9.695247,0.443528,0.783459,-0.020267,-0.003497,-0.007390
2.270000,9.641419,0.164481,0.836857,-0.020363,-0.002291,-0.006668
2.280000,9.773715,0.186107,0.850863,-0.020468,-0.002291,-0.006501
2.290000,9.918272,0.242664,0.884396,-0.020599,-0.002291,-0.004546
2.300000,9.999107,0.243358,1.000271,-0.021711,-0.004661,-0.000630
2.310000,9.926334,0.301809,1.027550,-0.023319,-0.004957,0.004006
2.320000,9.711470,0.432807,1.017042,-0.024186,-0.004389,0.007255
2.330000,9.695200,0.311616,0.990936,-0.024562,-0.006204,0.009843
2.340000,9.724905,0.130478,0.957737,-0.024678,-0.008493,0.010424
2.350000,9.923828,0.076435,0.971585,-0.024275,-0.006496,0.008023
2.360000,10.177465,0.063484,1.000644,-0.024135,-0.008176,0.003402
2.370000,9.966990,-0.003981,0.950300,-0.023995,-0.009856,-0.001218
2.380000,9.875795,-0.079350,1.152036,-0.024236,-0.016181,-0.005468
2.390000,9.756248,-0.134436,1.023931,-0.023976,-0.015618,-0.012064
2.400000,9.577062,0.009350,1.089390,-0.023963,-0.019674,-0.015050
2.410000,9.682084,0.065166,0.924511,-0.023900,-0.021601,-0.016107
2.420000,9.849866,0.065212,0.962857,-0.023838,-0.023529,-0.017164
2.430000,9.705822,0.014828,1.106575,-0.022359,-0.024611,-0.020076
2.440000,9.885143,0.186479,1.061288,-0.021061,-0.026837,-0.019520
2.450000,9.787698,0.176278,0.987836,-0.020806,-0.027664,-0.018411
2.460000,9.724230,0.166754,0.932556,-0.020853,-0.028087,-0.017142
2.470000,9.782792,0.205796,0.911185,-0.020900,-0.028510,-0.015873
2.480000,9.841355,0.244837,0.889813,-0.021386,-0.029424,-0.014024
2.490000,9.899917,0.283879,0.868441,-0.022266,-0.030778,-0.011653
2.500000,9.811914,0.303768,0.928675,-0.023398,-0.031372,-0.008454
2.510000,9.730143,0.294403,0.947996,-0.025200,-0.029928,-0.003044
2.520000,9.938141,0.397599,0.872320,-0.025713,-0.028776,-0.000703
2.530000,9.625499,0.389103,0.920474,-0.027923,-0.025389,0.001654
2.540000,9.745181,0.335831,0.979850,-0.029244,-0.026839,0.005162
2.550000,9.756484,0.220343,0.971364,-0.029784,-0.023675,0.006284
2.560000,9.659473,0.177593,0.993397,-0.030519,-0.024411,0.004961
2.570000,9.583362,0.107486,1.122503,-0.031154,-0.024429,0.003594
2.580000,9.560730,-0.047435,1.018125,-0.031540,-0.019565,0.000925
2.590000,9.605743,-0.102381,0.917354,-0.032443,-0.019623,-0.002119
2.600000,9.769653,0.084079,1.058929,-0.032587,-0.022837,-0.004302
2.610000,9.753066,0.159038,1.070582,-0.032563,-0.018697,-0.006808
2.620000,10.129019,0.306415,0.872258,-0.032580,-0.017155,-0.006008
2.630000,10.161568,0.364961,0.877396,-0.032177,-0.017089,-0.004137
2.640000,10.029314,0.373312,0.954582,-0.031656,-0.016165,-0.002576
2.650000,9.908017,0.333889,1.016348,-0.031154,-0.015222,-0.001027
2.660000,9.855698,0.226010,1.114179,-0.030619,-0.012889,0.000431
2.670000,9.787233,0.212575,0.816288,-0.028996,-0.006812,0.002477
2.680000,9.810022,0.207256,0.934292,-0.028387,-0.004673,0.003891
2.690000,9.854252,0.203678,1.168129,-0.028117,-0.006021,0.004970
2.700000,9.845341,-0.040807,1.228123,-0.027638,-0.005900,0.006048
2.710000,10.162383,-0.002193,1.179010,-0.026868,-0.002843,0.006809
2.720000,9.933699,0.052613,1.040236,-0.026759,0.004218,0.004527
2.730000,9.505420,0.060819,0.896319,-0.026146,0.005757,0.000882
2.740000,9.469500,-0.075775,1.042928,-0.025305,0.004804,-0.003379
2.750000,9.479068,-0.229158,1.223219,-0.024464,0.003851,-0.007640
2.760000,9.820360,0.062018,1.251148,-0.024056,0.001835,-0.010826
2.770000,9.565648,-0.059684,1.246168,-0.024083,0.005569,-0.014937
2.780000,9.569392,-0.047668,1.371063,-0.024501,0.001978,-0.017038
2.790000,9.702520,0.217169,1.182188,-0.025063,0.004619,-0.017665
2.800000,9.596510,0.075597,1.082955,-0.025964,0.006364,-0.017613
2.810000,9.434368,0.107265,1.377568,-0.026255,0.001621,-0.015871
2.820000,9.518086,0.134799,1.249196,-0.026016,0.002726,-0.014288
2.830000,9.602798,0.175932,1.124498,-0.025747,0.004345,-0.012737
2.840000,9.683492,0.234455,1.096007,-0.027078,0.010885,-0.013645
2.850000,9.686954,0.080161,1.237891,-0.026641,0.007380,-0.014535
2.860000,9.437047,-0.210969,1.351799,-0.027020,0.011040,-0.018069
2.870000,9.663886,0.079537,1.418102,-0.025441,0.010119,-0.017978
2.880000,9.567933,0.283017,1.162739,-0.025221,0.015670,-0.020025
2.890000,9.353284,0.231607,1.138177,-0.027920,0.017590,-0.022285
2.900000,9.524930,0.158140,1.385962,-0.027128,0.012900,-0.021303
2.910000,9.540104,0.121542,1.472294,-0.027836,0.013102,-0.019786
2.920000,9.423411,0.116016,1.422561,-0.027996,0.014540,-0.017996
2.930000,9.306718,0.110491,1.372829,-0.028053,0.016208,-0.016155
2.940000,9.190025,0.104965,1.323096,-0.028515,0.019710,-0.013691
2.950000,9.600650,0.181001,1.301354,-0.026978,0.019622,-0.011631
2.960000,9.536636,0.029910,1.369744,-0.027791,0.022867,-0.014865
2.970000,9.451178,0.086811,1.435508,-0.027210,0.023675,-0.016768
2.980000,9.517069,0.186125,1.273341,-0.026439,0.025821,-0.016128
2.990000,9.470530,0.038479,1.346361,-0.026914,0.025793,-0.018374
3.000000,9.715187,0.174893,1.566799,-0.027288,0.022429,-0.018872
3.010000,9.955241,0.379982,1.558618,-0.028038,0.027515,-0.018849
3.020000,9.809759,0.223522,1.400402,-0.028411,0.030536,-0.018980
3.030000,9.838328,0.018991,1.559645,-0.027560,0.027128,-0.019485
3.040000,9.956367,0.106059,1.656096,-0.026221,0.026337,-0.020304
3.050000,9.875466,0.254171,1.588541,-0.026133,0.030315,-0.021769
3.060000,9.987337,0.251885,1.709182,-0.026416,0.024507,-0.023044
3.070000,9.873784,0.277153,1.856866,-0.025886,0.024359,-0.022144
3.080000,9.754088,0.304799,1.922095,-0.025569,0.024479,-0.020481
3.090000,9.886952,0.402565,1.916253,-0.025823,0.024603,-0.018010
3.100000,9.868006,0.339532,1.955238,-0.026441,0.024338,-0.015628
3.110000,9.669250,0.413287,1.812716,-0.026696,0.025022,-0.011541
3.120000,9.915932,0.678098,1.924246,-0.026725,0.019727,-0.007134
3.130000,9.647998,0.312871,1.923633,-0.027926,0.024518,-0.008046
3.140000,9.720181,0.109477,2.028707,-0.026925,0.021360,-0.006009
3.150000,9.870318,0.203356,2.190274,-0.025823,0.019980,-0.006918
3.160000,9.895843,0.350581,2.088174,-0.025933,0.023517,-0.009792
3.170000,9.892117,0.401442,2.233233,-0.026950,0.020826,-0.012322
3.180000,9.958868,0.267711,2.355293,-0.027085,0.020735,-0.011894
3.190000,9.849063,0.267158,2.301737,-0.028254,0.023336,-0.012647
3.200000,9.802436,0.408644,2.313280,-0.028648,0.021898,-0.013286
3.210000,9.803178,0.463715,2.360686,-0.028519,0.019900,-0.013639
3.220000,9.797644,0.366081,2.299813,-0.028417,0.020815,-0.014554
3.230000,9.714774,0.305210,2.499024,-0.027363,0.016998,-0.014442
3.240000,9.736986,0.302996,2.677267,-0.026633,0.015769,-0.015603
3.250000,9.758275,0.301429,2.725777,-0.025890,0.016566,-0.017324
3.260000,9.808184,0.317983,2.739366,-0.025165,0.017290,-0.018878
3.270000,9.830100,0.268557,2.698310,-0.024440,0.018015,-0.020431
3.280000,9.506657,0.011513,2.681687,-0.023698,0.017881,-0.022374
3.290000,9.777661,0.204858,2.860272,-0.021823,0.011036,-0.022626
3.300000,9.694544,0.361313,2.834493,-0.021363,0.012231,-0.023315
3.310000,9.697641,0.449500,2.804310,-0.020904,0.013425,-0.024003
3.320000,9.726746,0.517092,2.772799,-0.020445,0.014619,-0.024692
3.330000,9.673637,0.583138,2.823551,-0.020172,0.011615,-0.019866
3.340000,9.471439,0.612509,3.015860,-0.019344,0.008221,-0.014712
3.350000,9.596064,0.550612,2.955435,-0.019179,0.009308,-0.009629
3.360000,9.660863,0.486556,2.814837,-0.019597,0.010441,-0.005214
3.370000,9.487206,0.336847,2.883062,-0.020336,0.010294,-0.004155
3.380000,9.687526,0.368077,2.928807,-0.020916,0.006295,-0.004050
3.390000,9.554502,0.312933,2.885238,-0.021079,0.006845,-0.005575
3.400000,9.676177,0.258962,3.045865,-0.022000,0.003981,-0.007905
3.410000,9.610115,0.187202,3.083800,-0.022683,0.001807,-0.010305
3.420000,9.551977,0.182524,3.056240,-0.023439,0.003389,-0.013114
3.430000,9.502672,0.361519,2.888707,-0.024123,0.002749,-0.018586
3.440000,9.679504,0.279132,2.997830,-0.024870,-0.001328,-0.019373
3.450000,9.632176,0.426131,2.989312,-0.025213,0.000458,-0.016863
3.460000,9.680013,0.660517,2.944319,-0.025348,0.000458,-0.016051
3.470000,9.707565,0.587300,2.934491,-0.026267,-0.001771,-0.014170
3.480000,9.680352,0.491247,2.969345,-0.025623,-0.001360,-0.010544
3.490000,9.702244,0.622460,2.938413,-0.024981,-0.001434,-0.005762
3.500000,9.783990,0.699845,2.975338,-0.024020,-0.003603,-0.002842
3.510000,9.574340,0.599489,2.852652,-0.023732,-0.000630,-0.001883
3.520000,9.432292,0.419839,2.845734,-0.024368,-0.002376,0.003989
3.530000,9.487345,0.345769,2.944328,-0.023547,-0.004126,0.006522
3.540000,9.585435,0.377213,2.910282,-0.022561,-0.001857,0.007589
3.550000,9.248088,0.360763,2.714423,-0.023321,0.001509,0.004980
3.560000,9.363974,0.391296,2.723197,-0.022968,-0.001425,0.003068
3.570000,9.588993,0.277805,2.901553,-0.023699,-0.003001,0.001401
3.580000,9.397757,0.242396,2.892025,-0.022947,0.002498,0.000783
3.590000,9.700640,0.383741,2.772425,-0.021955,0.000963,-0.001260
3.600000,9.784837,0.453558,2.878615,-0.022104,0.000040,-0.005179
3.610000,9.354384,0.274329,2.966245,-0.021105,0.002131,-0.006154
3.620000,9.655096,0.226718,2.915881,-0.022144,-0.000204,-0.006046
3.630000,9.749749,0.419788,2.783643,-0.022230,0.003832,-0.004804
3.640000,9.528966,0.369148,2.794628,-0.022558,0.003308,-0.005065
3.650000,9.359980,0.321548,2.830010,-0.022885,0.002785,-0.005327
3.660000,9.696769,0.309632,2.997148,-0.022667,-0.001094,-0.004384
3.670000,9.861895,0.273639,2.923914,-0.021961,0.000639,-0.003696
3.680000,9.670630,0.181976,2.933729,-0.020833,0.002138,-0.005233
3.690000,9.653990,0.269237,2.860512,-0.020464,0.002036,-0.005345
3.700000,9.778216,0.377303,2.880605,-0.021432,0.001140,-0.005379
3.710000,9.802995,0.226797,2.722876,-0.020949,-0.001214,-0.006110
3.720000,9.897330,0.112650,2.849778,-0.020149,-0.004070,-0.009994
3.730000,9.793934,0.179378,2.960473,-0.020165,-0.001636,-0.012283
3.740000,9.651616,0.372996,3.114425,-0.020359,-0.000543,-0.013555
3.750000,9.719633,0.429909,3.099865,-0.020819,-0.003680,-0.012513
3.760000,9.823406,0.437596,3.008583,-0.021602,-0.002701,-0.011143
3.770000,9.797122,0.439745,2.992377,-0.022384,-0.001723,-0.009773
3.780000,9.488626,0.437846,3.147803,-0.022814,-0.001913,-0.008295
3.790000,9.785520,0.623993,3.010204,-0.022398,-0.003409,-0.006382
3.800000,9.673448,0.692762,2.956371,-0.021581,-0.001776,-0.003816
3.810000,9.558938,0.600917,3.010639,-0.023925,-0.003652,-0.002420
3.820000,9.672026,0.570256,2.941751,-0.023523,-0.003552,0.003713
3.830000,9.495370,0.674771,2.947255,-0.022440,-0.001477,0.008144
3.840000,9.292301,0.555267,2.925584,-0.022056,0.000065,0.009323
3.850000,9.317359,0.409166,2.842632,-0.022541,0.001192,0.009255
3.860000,9.517517,0.293937,2.732741,-0.023274,0.003849,0.009530
3.870000,9.437729,0.309402,2.857668,-0.024738,0.006312,0.008330
3.880000,9.531098,0.418136,2.825757,-0.025581,0.007076,0.006097
3.890000,9.361969,0.392701,2.788267,-0.025285,0.009349,0.002198
3.900000,9.365213,0.105135,2.804922,-0.024504,0.012166,-0.001516
3.910000,9.435618,0.167596,2.742165,-0.024961,0.013660,-0.006962
3.920000,9.491215,0.427725,2.611985,-0.026578,0.015706,-0.009956
3.930000,9.427653,0.485935,2.826426,-0.024791,0.016472,-0.007403
3.940000,9.373620,0.555530,2.860358,-0.023781,0.015575,-0.004647
3.950000,9.541968,0.442988,2.882260,-0.024282,0.013876,-0.002465
3.960000,9.551366,0.475308,2.882909,-0.024555,0.015310,-0.001613
3.970000,9.634009,0.683757,2.996437,-0.023668,0.012908,0.001827
3.980000,9.768154,0.674384,3.013555,-0.023852,0.013659,0.005332
3.990000,9.893517,0.349645,2.970962,-0.023133,0.015338,0.008366
4.000000,9.883319,0.146071,2.999005,-0.021409,0.013468,0.009522
4.010000,9.946227,0.387738,2.999603,-0.021517,0.011212,0.008496
4.020000,9.901807,0.436539,2.993315,-0.023080,0.012271,0.007191
4.030000,9.974390,0.279268,2.962916,-0.022306,0.012828,0.006670
4.040000,10.182067,0.207912,3.127681,-0.020933,0.012273,0.006039
4.050000,9.907934,0.322656,2.900249,-0.022660,0.013326,0.002054
4.060000,9.787941,0.413737,2.872403,-0.022579,0.012173,0.001481
4.070000,9.880244,0.498736,2.933235,-0.020793,0.009188,0.000715
4.080000,9.821716,0.330326,2.981152,-0.022355,0.009784,-0.000473
4.090000,9.755349,0.279994,2.969760,-0.024667,0.010035,-0.000560
4.100000,9.886432,0.496975,2.946445,-0.024414,0.006139,0.000986
4.110000,9.792675,0.623144,2.809566,-0.024097,0.010033,0.000572
4.120000,9.597939,0.557803,2.800973,-0.022449,0.008135,0.002053
4.130000,9.673616,0.490726,2.698121,-0.023079,0.008307,0.003601
4.140000,9.631609,0.482492,2.704696,-0.023710,0.008479,0.005148
4.150000,9.489650,0.509093,2.845601,-0.024750,0.006543,0.007493
4.160000,9.568515,0.525471,2.784452,-0.025155,0.006411,0.009367
4.170000,9.458772,0.443510,2.665941,-0.024577,0.009753,0.011484
4.180000,9.389793,0.376367,2.695782,-0.024680,0.009228,0.011830
4.190000,9.411308,0.411743,2.773448,-0.024796,0.008384,0.011227
4.200000,9.440318,0.460733,2.786872,-0.024553,0.010008,0.009133
4.210000,9.428139,0.459358,2.749156,-0.024457,0.012794,0.006491
4.220000,9.415960,0.457983,2.711439,-0.024361,0.015581,0.003849
4.230000,9.526264,0.207429,2.634215,-0.024174,0.017841,0.001410
4.240000,9.325626,0.109626,2.688134,-0.023645,0.017818,-0.000412
4.250000,9.560102,0.144464,2.646257,-0.023193,0.018516,-0.003451
4.260000,9.777646,0.284530,2.585387,-0.021625,0.019335,-0.004883
4.270000,9.639307,0.214852,2.621969,-0.022123,0.018347,-0.006904
4.280000,9.628810,0.266433,2.675212,-0.023190,0.016098,-0.008531
4.290000,9.707193,0.474347,2.605121,-0.022553,0.016179,-0.008503
4.300000,9.820001,0.500839,2.445451,-0.021086,0.014949,-0.006777
4.310000,9.807211,0.372838,2.444863,-0.020625,0.011351,-0.004640
4.320000,9.800113,0.337015,2.363028,-0.020667,0.010844,-0.002136
4.330000,9.816675,0.481630,2.401237,-0.020724,0.007004,0.000839
4.340000,9.824277,0.645836,2.370946,-0.021891,0.006402,0.002063
4.350000,9.865678,0.553591,2.336418,-0.021161,0.006058,0.003799
4.360000,9.754474,0.326170,2.424379,-0.021234,0.003879,0.005522
4.370000,9.723282,0.400674,2.502250,-0.023533,0.002235,0.005783
4.380000,9.704550,0.749019,2.451802,-0.023695,0.004704,0.007342
4.390000,9.751619,0.642112,2.445800,-0.024036,0.005494,0.009201
4.400000,9.736409,0.295976,2.396445,-0.025828,0.005460,0.009951
4.410000,9.765361,0.310968,2.389953,-0.027007,0.003241,0.008391
4.420000,9.675648,0.451609,2.258195,-0.026934,0.003831,0.006915
4.430000,9.691120,0.662085,2.338761,-0.026951,0.004252,0.005681
4.440000,9.675778,0.468963,2.386139,-0.027249,0.004153,0.005185
4.450000,9.711906,0.360535,2.382872,-0.027037,0.004962,0.004680
4.460000,9.608521,0.484835,2.265973,-0.026612,0.006150,0.004171
4.470000,9.819433,0.682557,2.228133,-0.026978,0.003126,0.004760
4.480000,9.618286,0.622124,2.217105,-0.027797,0.003736,0.005387
4.490000,9.637657,0.421084,2.198915,-0.026625,0.003395,0.006792
4.500000,9.705927,0.265278,2.143700,-0.024789,0.002877,0.008454
4.510000,9.668555,0.466827,2.085572,-0.022774,0.002199,0.008973
4.520000,9.576359,0.628087,2.055440,-0.022236,0.003480,0.007912
4.530000,9.584163,0.534825,2.057362,-0.021168,0.002744,0.009100
4.540000,9.744273,0.218794,2.072937,-0.020665,-0.001273,0.010180
4.550000,9.755461,0.293147,1.999559,-0.019824,0.002987,0.009750
4.560000,9.735496,0.429937,2.012245,-0.018977,0.001138,0.008869
4.570000,9.592663,0.452302,1.935561,-0.019173,0.002214,0.008185
4.580000,9.702736,0.314330,2.071435,-0.017805,0.002745,0.008951
4.590000,9.819923,0.272142,2.108544,-0.018334,0.004067,0.008159
4.600000,9.763392,0.331345,2.118116,-0.018441,0.007692,0.007006
4.610000,9.637489,0.305141,2.040776,-0.020771,0.009442,0.005519
4.620000,9.764597,0.448915,2.064097,-0.020660,0.008200,0.005822
4.630000,9.766225,0.492898,2.040533,-0.019700,0.009937,0.006261
4.640000,9.763228,0.303196,2.054093,-0.021269,0.010308,0.005571
4.650000,9.768257,0.220806,2.021262,-0.023252,0.009064,0.005219
4.660000,9.731917,0.442272,2.056723,-0.023078,0.007396,0.005046
4.670000,9.704914,0.561655,2.056723,-0.024958,0.007093,0.005277
4.680000,9.645534,0.410518,2.076770,-0.024784,0.008061,0.008517
4.690000,9.679836,0.297243,2.150958,-0.026407,0.006534,0.008231
4.700000,9.698783,0.380898,2.039680,-0.027829,0.007086,0.008687
4.710000,9.668591,0.504916,2.027139,-0.028062,0.005456,0.008571
4.720000,9.599465,0.428998,1.903857,-0.027819,0.005052,0.009396
4.730000,9.648517,0.261281,1.922441,-0.027091,0.004617,0.009750
4.740000,9.631963,0.376210,1.849124,-0.028695,0.005020,0.008247
4.750000,9.676614,0.377785,1.903229,-0.028136,0.004321,0.008247
4.760000,9.587254,0.219651,1.993232,-0.027606,0.004007,0.005749
4.770000,9.603536,0.194525,1.984983,-0.027532,0.004709,0.004815
4.780000,9.645153,0.222627,1.946155,-0.026437,0.005365,0.004705
4.790000,9.686770,0.250730,1.907327,-0.025343,0.006022,0.004596
4.800000,9.691756,0.314675,1.894111,-0.024530,0.005942,0.003858
4.810000,9.694019,0.381285,1.882800,-0.023760,0.005749,0.003024
4.820000,9.816329,0.458485,1.879818,-0.022222,0.004230,0.002258
4.830000,9.708279,0.237059,1.881810,-0.020929,0.006069,0.001627
4.840000,9.794865,0.272168,1.898719,-0.021283,0.004055,-0.000708
4.850000,9.847210,0.432045,1.848582,-0.021533,0.003316,-0.000425
4.860000,9.749192,0.496283,1.905635,-0.021269,0.003930,-0.000082
4.870000,9.808360,0.417653,1.976479,-0.019984,0.002250,0.001005
4.880000,9.832572,0.339004,1.943401,-0.021043,0.003394,0.000285
4.890000,9.809383,0.422318,1.843190,-0.021628,0.004181,0.000783
4.900000,9.704970,0.442235,1.800344,-0.020673,0.004720,0.000069
4.910000,9.757735,0.433242,1.876666,-0.020584,0.003282,-0.000393
4.920000,9.777586,0.448251,1.857402,-0.021075,0.003598,-0.000303
4.930000,9.813129,0.448925,1.848148,-0.021821,0.004013,0.000280
4.940000,9.739845,0.400150,1.780053,-0.022920,0.004855,0.000209
4.950000,9.708760,0.498869,1.846243,-0.024141,0.003300,0.000828
4.960000,9.729727,0.694996,1.871411,-0.025159,0.003347,0.001647
4.970000,9.800207,0.566854,1.820171,-0.024862,0.005357,0.004382
4.980000,9.844500,0.323724,1.861837,-0.024473,0.005561,0.006809
4.990000,9.717994,0.398005,1.882119,-0.027918,0.004762,0.006237
5.000000,9.745255,0.616677,1.852362,-0.026292,0.005553,0.007189
5.010000,9.784946,0.729819,1.893877,-0.026408,0.005088,0.008699
5.020000,9.886249,0.567533,1.891986,-0.027465,0.005756,0.011775
5.030000,9.871966,0.527380,1.860726,-0.027397,0.005618,0.014044
5.040000,9.853574,0.503179,1.829937,-0.027434,0.005484,0.016035
5.050000,9.816827,0.550233,1.801257,-0.028233,0.005370,0.016035
5.060000,9.700717,0.464324,1.851204,-0.026677,0.005836,0.018318
5.070000,9.769347,0.492197,1.904595,-0.026748,0.004653,0.017776
5.080000,9.875138,0.379707,1.833129,-0.026287,0.005020,0.016938
5.090000,9.839544,0.308941,1.903699,-0.026023,0.005406,0.016309
5.100000,9.529007,0.416272,1.873980,-0.026112,0.005495,0.015598
5.110000,9.515372,0.540917,1.750205,-0.025593,0.004021,0.015664
5.120000,9.670514,0.390657,1.644298,-0.025345,0.002754,0.014700
5.130000,9.719031,0.209589,1.763548,-0.025311,0.000916,0.013812
5.140000,9.709401,0.224756,1.755362,-0.024634,0.000916,0.012360
5.150000,9.699770,0.239924,1.747177,-0.023956,0.000916,0.010908
5.160000,9.613526,0.377827,1.678004,-0.023278,0.000916,0.009456
5.170000,9.603871,0.329129,1.639466,-0.022207,0.000360,0.009122
5.180000,9.640125,0.302461,1.626743,-0.021714,-0.000177,0.008898
5.190000,9.676379,0.275794,1.614019,-0.021222,-0.000714,0.008674
5.200000,9.712632,0.249126,1.601295,-0.020729,-0.001252,0.008450
5.210000,9.644403,0.394596,1.592719,-0.021310,-0.001540,0.008646
5.220000,9.637732,0.377610,1.499860,-0.021039,0.000908,0.008714
5.230000,9.668373,0.309986,1.431325,-0.019993,0.002128,0.008975
5.240000,9.696758,0.151215,1.512815,-0.020382,-0.002734,0.008349
5.250000,9.748522,0.207197,1.609825,-0.021280,-0.002464,0.006499
5.260000,9.696257,0.415722,1.446914,-0.020444,-0.000368,0.007045
5.270000,9.786417,0.329746,1.472451,-0.021450,-0.003796,0.006836
5.280000,9.849625,0.317103,1.573232,-0.022450,-0.005343,0.004887
5.290000,9.868140,0.356229,1.543538,-0.022843,-0.004783,0.004775
5.300000,9.855116,0.365848,1.517368,-0.023235,-0.004223,0.004662
5.310000,9.785166,0.322207,1.497559,-0.023776,-0.003818,0.004877
5.320000,9.783101,0.347921,1.467088,-0.024493,-0.003652,0.005969
5.330000,9.820149,0.468733,1.447508,-0.024072,-0.002763,0.007091
5.340000,9.813770,0.449598,1.418431,-0.024389,-0.002808,0.007814
5.350000,9.807392,0.430464,1.389354,-0.024705,-0.002853,0.008537
5.360000,9.798944,0.411446,1.326268,-0.025021,-0.002898,0.009260
5.370000,9.756059,0.298573,1.192524,-0.025450,-0.002526,0.006973
5.380000,9.739221,0.280447,1.271267,-0.026211,-0.005868,0.005442
5.390000,9.761393,0.401725,1.300571,-0.025351,-0.005416,0.005639
5.400000,9.745699,0.427081,1.299354,-0.024308,-0.003008,0.006040
5.410000,9.660553,0.207501,1.288849,-0.024407,-0.002179,0.004022
5.420000,9.733544,0.382298,1.253571,-0.023899,-0.000990,0.003741
5.430000,9.781290,0.536174,1.210150,-0.023476,0.000103,0.003595
5.440000,9.672184,0.502797,1.141342,-0.024773,-0.000487,0.002769
5.450000,9.635290,0.314092,1.264946,-0.023840,-0.003927,0.004706
5.460000,9.710718,0.357445,1.267519,-0.024261,-0.002332,0.004297
5.470000,9.726964,0.377753,1.241627,-0.022912,0.000096,0.003108
5.480000,9.629462,0.410770,1.219497,-0.023418,-0.000906,0.002544
5.490000,9.646484,0.519901,1.305229,-0.022972,-0.001979,0.003278
5.500000,9.704356,0.570082,1.307192,-0.022696,0.000404,0.004676
5.510000,9.746275,0.464882,1.252597,-0.023602,0.003224,0.005642
5.520000,9.753435,0.298163,1.152361,-0.022562,0.003484,0.005512
5.530000,9.650349,0.473157,1.279528,-0.023320,-0.000227,0.005238
5.540000,9.722377,0.653762,1.251952,-0.022413,0.000292,0.006904
5.550000,9.784407,0.641356,1.244862,-0.022823,0.001317,0.009158
5.560000,9.788136,0.195821,1.336210,-0.023606,-0.001267,0.009222
5.570000,9.740960,0.362660,1.282556,-0.023663,-0.001547,0.009063
5.580000,9.660586,0.548633,1.215545,-0.023121,0.000531,0.009153
5.590000,9.715501,0.494126,1.244143,-0.023305,-0.000541,0.008021
5.600000,9.861749,0.314582,1.361949,-0.023378,-0.001315,0.006997
5.610000,9.932211,0.296966,1.322314,-0.022757,0.000304,0.006873
5.620000,9.837468,0.332852,1.221551,-0.024197,-0.000600,0.006767
5.630000,9.734694,0.369860,1.252760,-0.024864,-0.001384,0.006042
5.640000,9.761102,0.471832,1.252734,-0.024455,-0.000723,0.006943
5.650000,9.851270,0.360003,1.229014,-0.024018,-0.000403,0.008677
5.660000,9.858894,0.214178,1.254902,-0.024629,-0.000476,0.009269
5.670000,9.828380,0.204198,1.293306,-0.024773,-0.001097,0.009261
5.680000,9.804807,0.330561,1.290215,-0.024393,-0.001666,0.008122
5.690000,9.730882,0.391369,1.214674,-0.023895,-0.000866,0.007692
5.700000,9.760127,0.186349,1.261196,-0.023113,-0.000585,0.007171
5.710000,9.774608,0.133798,1.299784,-0.023051,0.000124,0.005689
5.720000,9.756412,0.313852,1.240469,-0.023518,0.001493,0.003807
5.730000,9.687077,0.332838,1.265335,-0.023518,-0.000512,0.003138
5.740000,9.618177,0.334853,1.297138,-0.023518,-0.002517,0.002470
5.750000,9.700720,0.295004,1.283313,-0.022920,-0.001201,0.002045
5.760000,9.827499,0.328288,1.246225,-0.022602,0.000582,0.001417
5.770000,9.721398,0.338133,1.198437,-0.023010,0.002374,0.001548
5.780000,9.598513,0.360470,1.313742,-0.024164,-0.001836,0.001434
5.790000,9.672541,0.435495,1.278238,-0.024802,-0.002085,0.001370
5.800000,9.746788,0.407944,1.191813,-0.022825,0.001427,0.002549
5.810000,9.730645,0.346480,1.211438,-0.023745,0.001213,0.002670
5.820000,9.689400,0.306555,1.288649,-0.023578,0.000542,0.002503
5.830000,9.745492,0.468394,1.199733,-0.023617,0.001686,0.002443
5.840000,9.723219,0.422154,1.234499,-0.024265,0.000500,0.001688
5.850000,9.683534,0.312282,1.327316,-0.025185,-0.002511,0.000517
5.860000,9.733131,0.396933,1.314650,-0.024317,0.000305,0.001210
5.870000,9.824536,0.467243,1.237758,-0.023585,0.001460,0.002054
5.880000,9.822202,0.482638,1.215531,-0.023540,0.000997,0.002329
5.890000,9.817526,0.496787,1.194738,-0.023563,0.000404,0.002542
5.900000,9.812851,0.510936,1.173946,-0.023587,-0.000189,0.002756
5.910000,9.808176,0.525084,1.153153,-0.023611,-0.000782,0.002969
5.920000,9.801345,0.534569,1.138702,-0.023634,-0.001374,0.003183
5.930000,9.777005,0.506173,1.175752,-0.023658,-0.001967,0.003396
5.940000,9.752666,0.477777,1.212802,-0.023294,-0.001161,0.004341
5.950000,9.741833,0.417999,1.185039,-0.022833,-0.000562,0.005305
5.960000,9.733296,0.373973,1.151688,-0.022692,-0.001615,0.005515
5.970000,9.728866,0.440428,1.129537,-0.022713,-0.001663,0.005540
5.980000,9.757078,0.393957,1.120953,-0.023022,0.000090,0.005230
5.990000,9.801897,0.290032,1.119272,-0.022717,-0.000381,0.005450
6.000000,9.783495,0.288586,1.183235,-0.022367,-0.000637,0.005486
6.010000,9.746174,0.383932,1.148625,-0.022107,0.000249,0.004965
6.020000,9.716369,0.480101,1.082960,-0.021846,0.001135,0.004444
6.030000,9.755794,0.426762,1.122345,-0.021768,0.000900,0.004411
6.040000,9.804057,0.317277,1.217826,-0.021981,-0.001130,0.005159
6.050000,9.767504,0.415813,1.121771,-0.022357,-0.000471,0.005803
6.060000,9.718888,0.439876,0.981426,-0.022887,0.002104,0.005512
6.070000,9.727235,0.416311,1.112997,-0.022660,-0.001447,0.005498
6.080000,9.730681,0.435238,1.132458,-0.023083,-0.001425,0.005979
6.090000,9.789641,0.338186,1.040460,-0.023743,0.000934,0.008265
6.100000,9.789685,0.267273,1.024037,-0.023697,0.001533,0.007553
6.110000,9.736722,0.355388,1.069407,-0.024657,-0.000359,0.006704
6.120000,9.695663,0.452357,1.049858,-0.024786,0.000075,0.006140
6.130000,9.712434,0.489466,1.023097,-0.024876,-0.000376,0.006501
6.140000,9.824554,0.137239,1.015165,-0.025300,-0.000718,0.005343
6.150000,9.829913,0.240147,1.009434,-0.025351,-0.001079,0.004367
6.160000,9.754125,0.462146,0.953230,-0.026209,-0.001406,0.003266
6.170000,9.720365,0.462206,0.927438,-0.026153,0.000209,0.003722
6.180000,9.738726,0.313234,1.002270,-0.025259,-0.001966,0.004388
6.190000,9.730561,0.343650,0.985781,-0.024831,-0.001845,0.004575
6.200000,9.722397,0.374067,0.969292,-0.024440,-0.001532,0.004732
6.210000,9.714232,0.404484,0.952802,-0.024049,-0.001219,0.004888
6.220000,9.703583,0.448237,0.922956,-0.023711,-0.000916,0.005079
6.230000,9.702656,0.478343,0.873798,-0.024521,-0.000925,0.005816
6.240000,9.738657,0.395450,0.864874,-0.024252,-0.000958,0.005243
6.250000,9.774658,0.312557,0.855949,-0.023982,-0.000992,0.004670
6.260000,9.810659,0.229664,0.847025,-0.023713,-0.001026,0.004098
6.270000,9.791944,0.316426,0.826438,-0.023443,-0.001059,0.003525
6.280000,9.736964,0.457239,0.786721,-0.023072,0.001428,0.002919
6.290000,9.761578,0.283853,0.821976,-0.023889,-0.000556,0.001932
6.300000,9.770868,0.283317,0.892167,-0.024087,-0.000853,0.000843
6.310000,9.798800,0.391543,0.818251,-0.023824,-0.000489,0.000977
6.320000,9.761089,0.535466,0.749152,-0.023436,0.000054,0.001443
6.330000,9.712752,0.441155,0.701576,-0.023232,-0.004247,0.003127
6.340000,9.824013,0.422638,0.686978,-0.022947,-0.002623,0.003227
6.350000,9.868921,0.434007,0.691526,-0.024316,-0.002432,0.004193
6.360000,9.798989,0.386319,0.684671,-0.023119,0.000627,0.004715
6.370000,9.737495,0.463160,0.711275,-0.022454,0.001622,0.005466
6.380000,9.764668,0.418222,0.606418,-0.023341,-0.002065,0.006671
6.390000,9.783164,0.335431,0.552471,-0.023083,-0.001245,0.006143
6.400000,9.783717,0.263343,0.589990,-0.023351,-0.001513,0.006546
6.410000,9.783824,0.326445,0.617364,-0.023642,-0.002495,0.006567
6.420000,9.818023,0.374380,0.528502,-0.023729,-0.002712,0.006073
6.430000,9.852222,0.422314,0.439641,-0.023794,-0.002841,0.005525
6.440000,9.840121,0.393009,0.431160,-0.023858,-0.002970,0.004977
6.450000,9.827624,0.363042,0.423366,-0.023923,-0.003099,0.004428
6.460000,9.815127,0.333076,0.415572,-0.024123,-0.003119,0.004000
6.470000,9.802630,0.303110,0.407778,-0.025015,-0.002584,0.004178
6.480000,9.794300,0.291094,0.437861,-0.025620,-0.002621,0.004568
6.490000,9.789316,0.294756,0.499156,-0.025879,-0.003353,0.005214
6.500000,9.763679,0.307971,0.435989,-0.026137,-0.004085,0.005860
6.510000,9.738042,0.321186,0.372821,-0.026395,-0.004817,0.006505
6.520000,9.754272,0.379247,0.438759,-0.025429,-0.004354,0.005797
6.530000,9.870748,0.395476,0.364771,-0.024357,-0.003282,0.005708
6.540000,9.843526,0.331481,0.302579,-0.024162,-0.002861,0.005424
6.550000,9.785043,0.259605,0.335169,-0.025524,-0.003594,0.004795
6.560000,9.790826,0.422853,0.396427,-0.024194,-0.003887,0.004515
6.570000,9.867950,0.445493,0.333748,-0.025632,-0.002935,0.003971
6.580000,9.860697,0.275162,0.306280,-0.023605,-0.001643,0.003827
6.590000,9.805972,0.191214,0.345237,-0.024161,-0.002891,0.003395
6.600000,9.777987,0.272109,0.406455,-0.024367,-0.002822,0.002639
6.610000,9.753406,0.413935,0.298910,-0.024573,-0.002754,0.001884
6.620000,9.794741,0.282561,0.345171,-0.024554,-0.001622,0.001065
6.630000,9.865040,0.244338,0.451894,-0.024809,-0.002689,0.000259
6.640000,9.884739,0.354502,0.415826,-0.025007,-0.002778,0.000024
6.650000,9.880496,0.381829,0.386600,-0.024530,-0.001703,0.000084
6.660000,9.871253,0.369277,0.370738,-0.024052,-0.000628,0.000143
6.670000,9.862010,0.356725,0.354877,-0.024352,-0.001133,0.000565
6.680000,9.852767,0.344173,0.339016,-0.024797,-0.001935,0.001055
6.690000,9.843524,0.331620,0.323154,-0.025243,-0.002737,0.001545
6.700000,9.757277,0.292576,0.366957,-0.025681,-0.003266,0.001596
6.710000,9.730065,0.450189,0.354224,-0.025508,-0.003042,0.001494
6.720000,9.785445,0.495342,0.309137,-0.024403,-0.002228,0.002222
6.730000,9.805695,0.365966,0.271960,-0.024233,-0.001887,0.002676
6.740000,9.820023,0.323912,0.317549,-0.024063,-0.001547,0.003130
6.750000,9.834351,0.281858,0.363139,-0.024584,-0.001706,0.002311
6.760000,9.805156,0.445252,0.340031,-0.025996,-0.001696,0.000543
6.770000,9.726705,0.358227,0.235670,-0.026631,-0.001697,0.000764
6.780000,9.725196,0.296245,0.258734,-0.026273,-0.003967,0.000763
6.790000,9.766553,0.313802,0.258929,-0.026906,-0.003606,0.000718
6.800000,9.807911,0.331360,0.259124,-0.027538,-0.003245,0.000673
6.810000,9.812092,0.344193,0.268390,-0.028170,-0.002883,0.000628
6.820000,9.758273,0.363943,0.294734,-0.027922,-0.002652,0.000998
6.830000,9.796790,0.440030,0.307679,-0.027584,-0.003177,0.000989
6.840000,9.799997,0.413221,0.274360,-0.027492,-0.004092,0.000624
6.850000,9.784183,0.350061,0.252481,-0.028111,-0.004281,0.000483
6.860000,9.804028,0.469439,0.304668,-0.026956,-0.003704,0.000579
6.870000,9.792799,0.548743,0.244486,-0.028072,-0.003363,0.001061
6.880000,9.795829,0.357986,0.231623,-0.027489,-0.001464,0.001615
6.890000,9.804421,0.312104,0.317967,-0.027489,-0.002637,0.001477
6.900000,9.820811,0.364625,0.367136,-0.027432,-0.003207,0.001508
6.910000,9.852088,0.451385,0.267964,-0.027206,-0.002002,0.002035
6.920000,9.794010,0.379216,0.263840,-0.026585,-0.001515,0.002629
6.930000,9.769204,0.426567,0.287012,-0.025329,-0.002911,0.003095
6.940000,9.769232,0.463208,0.292743,-0.025765,-0.002942,0.002721
6.950000,9.770816,0.467037,0.285217,-0.026201,-0.002973,0.002347
6.960000,9.772401,0.470867,0.277691,-0.026637,-0.003004,0.001974
6.970000,9.773985,0.474696,0.270165,-0.027073,-0.003036,0.001600
6.980000,9.771284,0.451041,0.250580,-0.027638,-0.002753,0.001224
6.990000,9.750023,0.308358,0.178766,-0.026573,-0.000541,0.001280
7.000000,9.767917,0.351682,0.341142,-0.026581,-0.004106,0.000012
7.010000,9.796954,0.453204,0.337407,-0.027012,-0.003245,0.000585
7.020000,9.793235,0.391537,0.273882,-0.027442,-0.002385,0.001159
7.030000,9.784162,0.336044,0.237700,-0.026641,-0.002149,0.001505
7.040000,9.752972,0.306053,0.314477,-0.027559,-0.002957,0.000048
7.050000,9.769490,0.490620,0.280084,-0.026706,-0.002554,0.000406
7.060000,9.824168,0.511796,0.235966,-0.026608,-0.001574,0.001681
7.070000,9.818177,0.345029,0.213997,-0.026822,-0.001969,0.002449
7.080000,9.841218,0.394830,0.235991,-0.027148,-0.003036,0.002842
7.090000,9.866293,0.459812,0.261067,-0.026628,-0.002777,0.001976
7.100000,9.827295,0.415919,0.257183,-0.027343,-0.002381,0.001159
7.110000,9.756432,0.311689,0.291613,-0.028258,-0.003940,0.001066
7.120000,9.815342,0.349143,0.352050,-0.027698,-0.004340,0.000145
7.130000,9.857434,0.376120,0.259728,-0.027561,-0.004533,-0.000586
7.140000,9.847283,0.412446,0.259996,-0.028194,-0.004398,-0.000948
7.150000,9.832864,0.451484,0.271426,-0.028828,-0.004262,-0.001311
7.160000,9.818444,0.490522,0.282856,-0.029462,-0.004126,-0.001673
7.170000,9.855372,0.497033,0.306561,-0.028577,-0.005066,-0.000881
7.180000,9.861518,0.318966,0.256585,-0.028651,-0.006317,-0.001322
7.190000,9.836502,0.317484,0.253912,-0.028514,-0.006889,-0.001582
7.200000,9.786608,0.493295,0.259632,-0.027484,-0.004570,-0.001066
7.210000,9.747154,0.498722,0.153431,-0.027122,-0.003695,-0.000812
7.220000,9.765579,0.350257,0.170486,-0.027659,-0.004818,-0.000947
7.230000,9.773102,0.395570,0.185710,-0.027805,-0.005508,-0.001201
7.240000,9.780624,0.440884,0.200934,-0.027950,-0.006198,-0.001456
7.250000,9.785576,0.481546,0.218687,-0.028095,-0.006888,-0.001710
7.260000,9.728575,0.410068,0.297403,-0.028240,-0.007578,-0.001964
7.270000,9.851101,0.456308,0.283770,-0.027812,-0.007048,-0.001250
7.280000,9.810347,0.406064,0.213428,-0.028227,-0.006977,-0.001270
7.290000,9.785782,0.363290,0.251372,-0.028677,-0.006927,-0.001320
7.300000,9.761853,0.320810,0.293583,-0.029126,-0.006877,-0.001370
7.310000,9.745805,0.588540,0.220214,-0.029575,-0.005448,-0.002341
7.320000,9.776393,0.504691,0.194924,-0.030174,-0.005071,-0.002316
7.330000,9.854556,0.311915,0.289008,-0.029565,-0.005158,-0.001098
7.340000,9.873677,0.304160,0.367942,-0.031023,-0.006128,-0.001376
7.350000,9.830651,0.524097,0.273806,-0.031924,-0.005574,-0.001760
7.360000,9.811441,0.451791,0.302944,-0.031060,-0.003089,-0.001327
7.370000,9.792231,0.379486,0.332082,-0.030196,-0.000605,-0.000895
7.380000,9.808624,0.351156,0.342647,-0.030690,-0.004139,0.001004
7.390000,9.919820,0.439930,0.303751,-0.030302,-0.001214,0.002604
7.400000,9.789771,0.439283,0.204503,-0.030198,-0.001242,0.002231
7.410000,9.769710,0.395551,0.202854,-0.030154,-0.001773,0.001655
7.420000,9.790224,0.375738,0.223543,-0.030109,-0.002305,0.001079
7.430000,9.810739,0.355925,0.244233,-0.030143,-0.002567,0.001081
7.440000,9.831253,0.336112,0.264923,-0.030271,-0.002503,0.001785
7.450000,9.812896,0.349999,0.331860,-0.030338,-0.002406,0.002496
7.460000,9.805066,0.449523,0.327932,-0.029511,-0.001815,0.003323
7.470000,9.782596,0.585639,0.234958,-0.032201,-0.001073,0.002651
7.480000,9.780190,0.424966,0.253610,-0.031153,-0.001452,0.004906
7.490000,9.820157,0.442581,0.389064,-0.030173,-0.002966,0.004966
7.500000,9.835322,0.545122,0.300235,-0.030962,-0.002177,0.004309
7.510000,9.832541,0.594833,0.241137,-0.030510,-0.001523,0.004522
7.520000,9.838611,0.404618,0.358823,-0.030151,-0.003294,0.007957
7.530000,9.867738,0.420333,0.410444,-0.029566,-0.003971,0.007090
7.540000,9.841181,0.439171,0.329860,-0.029365,-0.003054,0.005607
7.550000,9.799986,0.301703,0.274754,-0.029020,-0.001859,0.005335
7.560000,9.810402,0.302270,0.437059,-0.029472,-0.005025,0.004129
7.570000,9.833961,0.384591,0.399713,-0.030080,-0.004853,0.003891
7.580000,9.846764,0.449616,0.334230,-0.030688,-0.004666,0.003657
7.590000,9.811031,0.415478,0.245536,-0.031295,-0.004479,0.003423
7.600000,9.784203,0.386264,0.206445,-0.030370,-0.005445,0.005460
7.610000,9.776505,0.367626,0.273908,-0.030282,-0.005227,0.005941
7.620000,9.768806,0.348987,0.341370,-0.030195,-0.005009,0.006421
7.630000,9.784141,0.305702,0.378224,-0.030108,-0.004791,0.006901
7.640000,9.833988,0.230350,0.361179,-0.029956,-0.004216,0.006377
7.650000,9.828278,0.259074,0.344224,-0.029781,-0.003517,0.005504
7.660000,9.822568,0.287798,0.327269,-0.030009,-0.003038,0.005416
7.670000,9.816858,0.316523,0.310314,-0.030240,-0.002560,0.005334
7.680000,9.811148,0.345247,0.293359,-0.030470,-0.002082,0.005251
7.690000,9.805438,0.373971,0.276405,-0.030701,-0.001604,0.005169
7.700000,9.799729,0.402696,0.259450,-0.030932,-0.001126,0.005086
7.710000,9.794019,0.431420,0.242495,-0.031163,-0.000648,0.005004
7.720000,9.788309,0.460145,0.225540,-0.031393,-0.000170,0.004921
7.730000,9.782599,0.488869,0.208585,-0.031624,0.000308,0.004839
7.740000,9.776889,0.517593,0.191630,-0.031855,0.000786,0.004757
7.750000,9.607306,0.406097,0.279556,-0.031124,-0.000580,0.004597
7.760000,9.683486,0.525540,0.258866,-0.030996,-0.000453,0.005299
7.770000,9.723056,0.560088,0.272342,-0.030868,-0.000325,0.006002
7.780000,9.786157,0.313238,0.273001,-0.030356,0.001207,0.006803
7.790000,9.745006,0.287956,0.366013,-0.031707,-0.000707,0.006015
7.800000,9.686622,0.528073,0.218374,-0.031451,0.001298,0.005336
7.810000,9.682573,0.595227,0.225861,-0.032195,0.000418,0.004349
7.820000,9.720494,0.556232,0.229200,-0.032104,0.000783,0.005079
7.830000,9.758416,0.517238,0.232539,-0.032013,0.001148,0.005808
7.840000,9.796337,0.478243,0.235878,-0.031921,0.001512,0.006537
7.850000,9.834259,0.439248,0.239217,-0.031830,0.001877,0.007267
7.860000,9.788887,0.385849,0.287497,-0.031878,0.001234,0.007845
7.870000,9.682480,0.468185,0.259493,-0.032357,-0.000210,0.007750
7.880000,9.760687,0.338192,0.173291,-0.032199,0.001893,0.007570
7.890000,9.830601,0.217769,0.129676,-0.031765,0.004071,0.007540
7.900000,9.802175,0.282925,0.262399,-0.031784,-0.000761,0.008055
7.910000,9.743766,0.479932,0.220418,-0.031990,0.000072,0.007645
7.920000,9.796418,0.537273,0.175339,-0.032325,-0.001019,0.006973
7.930000,9.881974,0.354293,0.175944,-0.032434,-0.001114,0.006520
7.940000,9.865800,0.300951,0.281626,-0.032171,0.000083,0.006432
7.950000,9.836000,0.427951,0.233235,-0.031765,-0.000351,0.006607
7.960000,9.734990,0.530802,0.119702,-0.031770,0.000752,0.007025
7.970000,9.752870,0.435889,0.137241,-0.032834,-0.002043,0.007541
7.980000,9.741166,0.384816,0.206691,-0.032919,-0.002284,0.008236
7.990000,9.796510,0.369930,0.199058,-0.033140,-0.001475,0.008603
8.000000,9.835689,0.370426,0.144494,-0.032646,-0.000824,0.008950
8.010000,9.808509,0.518988,0.202212,-0.032476,-0.000890,0.008884
8.020000,9.798089,0.493945,0.162273,-0.032433,-0.000783,0.008934
8.030000,9.789203,0.456181,0.114958,-0.032319,-0.000622,0.009026
8.040000,9.785372,0.425074,0.081534,-0.032204,-0.000462,0.009117
8.050000,9.797478,0.414952,0.091910,-0.032090,-0.000302,0.009209
8.060000,9.809583,0.404830,0.102287,-0.031975,-0.000142,0.009300
8.070000,9.821689,0.394708,0.112663,-0.031861,0.000019,0.009392
8.080000,9.833795,0.384586,0.123039,-0.031746,0.000179,0.009483
8.090000,9.845900,0.374464,0.133415,-0.031632,0.000339,0.009575
8.100000,9.858006,0.364342,0.143791,-0.031518,0.000499,0.009666
8.110000,9.870111,0.354221,0.154168,-0.031403,0.000659,0.009758
8.120000,9.882217,0.344099,0.164544,-0.031289,0.000820,0.009849
8.130000,9.894323,0.333977,0.174920,-0.031174,0.000980,0.009941
8.140000,9.906428,0.323855,0.185296,-0.031060,0.001140,0.010033
8.150000,9.918534,0.313733,0.195672,-0.031650,0.000944,0.009894
8.160000,9.895789,0.336142,0.205696,-0.032973,0.000377,0.009516
8.170000,9.821273,0.303343,0.187751,-0.033198,-0.000806,0.008942
8.180000,9.740551,0.223305,0.155601,-0.033265,-0.002077,0.008340
8.190000,9.744051,0.203967,0.107422,-0.033499,-0.002629,0.007767
8.200000,9.747552,0.184629,0.059243,-0.033850,-0.002684,0.007213
8.210000,9.751053,0.165291,0.011064,-0.034200,-0.002740,0.006660
8.220000,9.752990,0.157851,-0.018986,-0.034551,-0.002795,0.006106
8.230000,9.752678,0.167537,-0.022944,-0.034902,-0.002850,0.005553
8.240000,9.752366,0.177223,-0.026902,-0.035252,-0.002906,0.004999
8.250000,9.752053,0.186909,-0.030860,-0.035603,-0.002961,0.004446
8.260000,9.751741,0.196595,-0.034817,-0.035953,-0.003016,0.003892
8.270000,9.751429,0.206281,-0.038775,-0.036737,-0.001275,0.003512
8.280000,9.708238,0.322505,0.053164,-0.037723,-0.000050,0.003815
8.290000,9.694211,0.404456,0.079398,-0.037789,-0.000828,0.004197
8.300000,9.712983,0.377286,0.054304,-0.038183,0.001422,0.004511
8.310000,9.802684,0.114134,0.036316,-0.038999,0.001961,0.005494
8.320000,9.829732,0.346786,0.048305,-0.040384,0.002743,0.006786
8.330000,9.725282,0.512307,0.026481,-0.040675,0.003825,0.006154
8.340000,9.671261,0.443444,-0.024292,-0.040459,0.005098,0.006183
8.350000,9.911510,0.152691,0.113574,-0.039898,0.002494,0.007290
8.360000,9.844113,0.235347,0.061309,-0.041774,0.003680,0.006658
8.370000,9.662482,0.453075,-0.044052,-0.042357,0.006246,0.006407
8.380000,9.617294,0.405923,-0.011438,-0.042613,0.004029,0.007089
8.390000,9.853592,0.386419,0.060533,-0.042598,0.003431,0.006931
8.400000,9.866229,0.297965,0.071311,-0.042214,0.005046,0.005623
8.410000,9.757865,0.275851,0.028566,-0.042111,0.004076,0.004830
8.420000,9.855723,0.505845,0.091393,-0.042369,0.001511,0.004635
8.430000,9.804845,0.489874,0.070671,-0.042576,0.003602,0.004304
8.440000,9.796117,0.216750,0.074671,-0.041779,0.002007,0.005001
8.450000,9.806731,0.345580,0.063391,-0.041958,0.002234,0.005389
8.460000,9.821969,0.570491,0.048458,-0.043087,0.004230,0.005476
8.470000,9.653328,0.581650,-0.001801,-0.043245,0.002392,0.007081
8.480000,9.716383,0.472580,0.005340,-0.043075,-0.000742,0.009198
8.490000,10.043240,0.333774,0.170650,-0.043415,-0.000667,0.009266
8.500000,10.044879,0.327217,0.218553,-0.043784,-0.000403,0.009213
8.510000,9.986467,0.329658,0.168686,-0.044085,-0.000056,0.009169
8.520000,9.928055,0.332099,0.118818,-0.043100,0.001852,0.009292
8.530000,9.859003,0.295693,0.071353,-0.042116,0.003760,0.009415
8.540000,9.767609,0.108829,0.048993,-0.042515,0.004479,0.008131
8.550000,9.895502,0.157106,0.141736,-0.043782,0.001750,0.005249
8.560000,9.941761,0.355818,0.132485,-0.043413,0.003469,0.004513
8.570000,9.733607,0.343684,-0.048134,-0.043126,0.006860,0.002954
8.580000,9.695469,0.341480,-0.061711,-0.043553,0.007434,0.003012
8.590000,9.686838,0.341001,-0.046299,-0.044173,0.007177,0.003542
8.600000,9.678207,0.340521,-0.030886,-0.044794,0.006919,0.004071
8.610000,9.669576,0.340042,-0.015474,-0.045414,0.006662,0.004601
8.620000,9.660945,0.339562,-0.000061,-0.046035,0.006405,0.005131
8.630000,9.652314,0.339083,0.015351,-0.046655,0.006148,0.005660
8.640000,9.643683,0.338603,0.030764,-0.047276,0.005890,0.006190
8.650000,9.635052,0.338124,0.046176,-0.047896,0.005633,0.006720
8.660000,9.652011,0.331414,0.069855,-0.048517,0.005376,0.007249
8.670000,9.873563,0.274893,0.159625,-0.049137,0.005118,0.007779
8.680000,10.053045,0.227752,0.237815,-0.049096,0.004924,0.007941
8.690000,9.951494,0.243279,0.238654,-0.050537,0.007739,0.007317
8.700000,9.926799,0.348959,0.209335,-0.052226,0.007342,0.006923
8.710000,9.967033,0.454003,0.186910,-0.053500,0.002754,0.007067
8.720000,10.080471,0.472004,0.208647,-0.053966,0.005684,0.007467
8.730000,9.965575,0.363066,0.243968,-0.054432,0.008614,0.007866
8.740000,9.782165,0.237651,0.248674,-0.052980,0.006725,0.008326
8.750000,9.956588,0.454087,0.165754,-0.053566,0.004283,0.007190
8.760000,9.871732,0.534496,0.175600,-0.054847,0.005919,0.009789
8.770000,9.886446,0.248950,0.325430,-0.055525,0.001683,0.010200
8.780000,10.017312,0.206403,0.298096,-0.054639,0.004698,0.010096
8.790000,9.799238,0.373275,0.135365,-0.054222,0.010700,0.009930
8.800000,9.697416,0.379396,0.194901,-0.054820,0.004786,0.009563
8.810000,9.859605,0.397048,0.156114,-0.054113,0.003294,0.010174
8.820000,9.822417,0.320018,0.226798,-0.053084,0.004111,0.009520
8.830000,9.786843,0.332054,0.198312,-0.052521,0.003999,0.008592
8.840000,9.751270,0.344090,0.169826,-0.051959,0.003886,0.007664
8.850000,9.715696,0.356127,0.141341,-0.051396,0.003774,0.006735
8.860000,9.680123,0.368163,0.112855,-0.050834,0.003661,0.005807
8.870000,9.746050,0.255743,0.125742,-0.050271,0.003548,0.004878
8.880000,9.856400,0.088856,0.156735,-0.050510,0.003178,0.001986
8.890000,9.771708,0.337339,0.220172,-0.050809,0.004804,-0.000425
8.900000,9.506669,0.425839,0.106995,-0.050706,0.009134,-0.001043
8.910000,9.691306,0.411756,0.225914,-0.050990,0.008566,0.000316
8.920000,9.789138,0.294890,0.239813,-0.051291,0.007783,0.001761
8.930000,9.816931,0.191470,0.256795,-0.052108,0.006046,0.003147
8.940000,9.692793,0.503636,0.151783,-0.052964,0.005192,0.002511
8.950000,9.708334,0.587373,0.175141,-0.053151,0.005038,0.004437
8.960000,9.809093,0.427042,0.278228,-0.053718,0.004897,0.005259
8.970000,9.909853,0.266710,0.381314,-0.054284,0.004755,0.006080
8.980000,9.949579,0.207449,0.410350,-0.054851,0.004613,0.006902
8.990000,9.929574,0.247098,0.366916,-0.055418,0.004472,0.007724
9.000000,9.909569,0.286747,0.323482,-0.055984,0.004330,0.008545
9.010000,9.888091,0.323398,0.283594,-0.056297,0.005034,0.008931
9.020000,9.860035,0.346671,0.259524,-0.056455,0.006258,0.009049
9.030000,9.831980,0.369944,0.235453,-0.056613,0.007482,0.009168
9.040000,9.803924,0.393217,0.211383,-0.056771,0.008706,0.009286
9.050000,9.796109,0.352783,0.207759,-0.057319,0.008066,0.009534
9.060000,9.815464,0.226832,0.231579,-0.057690,0.007042,0.009308
9.070000,9.806569,0.214378,0.224955,-0.056580,0.007143,0.006585
9.080000,9.758021,0.361234,0.175599,-0.056200,0.009590,0.004635
9.090000,9.673226,0.329280,0.230431,-0.055745,0.009285,0.004202
9.100000,9.806035,0.284877,0.322718,-0.055191,0.009452,0.003549
9.110000,9.939579,0.253801,0.378679,-0.054624,0.010082,0.002729
9.120000,9.864968,0.283138,0.241410,-0.054063,0.010588,0.002540
9.130000,9.821933,0.279125,0.289643,-0.053676,0.008685,0.003429
9.140000,9.838632,0.344620,0.243233,-0.052972,0.009859,0.004039
9.150000,9.855331,0.410115,0.196823,-0.052268,0.011032,0.004649
9.160000,9.909039,0.368084,0.237004,-0.051564,0.012206,0.005260
9.170000,10.001645,0.213039,0.368196,-0.051697,0.012185,0.005854
9.180000,9.946210,0.226799,0.329409,-0.051966,0.011969,0.006447
9.190000,9.849175,0.287995,0.242858,-0.052253,0.011731,0.007053
9.200000,9.772782,0.329315,0.191510,-0.053243,0.010569,0.008216
9.210000,9.739302,0.329315,0.213353,-0.054234,0.009406,0.009378
9.220000,9.705823,0.329315,0.235195,-0.055224,0.008243,0.010541
9.230000,9.672343,0.329315,0.257037,-0.056283,0.007636,0.010878
9.240000,9.845094,0.434540,0.227937,-0.057278,0.007813,0.011576
9.250000,9.815662,0.456237,0.240476,-0.058225,0.008282,0.011981
9.260000,9.751395,0.456202,0.242937,-0.059191,0.008943,0.011524
9.270000,9.657080,0.418120,0.190846,-0.060157,0.009604,0.011066
9.280000,9.562765,0.380039,0.138756,-0.060675,0.011386,0.010372
9.290000,9.520209,0.331698,0.116346,-0.060767,0.014237,0.009452
9.300000,9.702868,0.238718,0.223081,-0.061292,0.013383,0.009162
9.310000,9.883021,0.145765,0.327972,-0.061893,0.011881,0.008982
9.320000,9.822248,0.055426,0.255701,-0.062584,0.010705,0.008444
9.330000,9.785452,0.112587,0.276706,-0.063478,0.010258,0.007103
9.340000,9.750835,0.183153,0.306188,-0.064372,0.009811,0.005762
9.350000,9.716218,0.253718,0.335669,-0.064947,0.009542,0.004734
9.360000,9.741011,0.106043,0.340997,-0.064474,0.009857,0.004734
9.370000,9.783678,-0.107291,0.339058,-0.064632,0.011117,0.004406
9.380000,9.640737,0.331654,0.227493,-0.065157,0.012623,0.004310
9.390000,9.684600,0.221183,0.236701,-0.064397,0.011863,0.005355
9.400000,9.778162,0.046394,0.255553,-0.064372,0.011446,0.005654
9.410000,9.854975,0.100255,0.312203,-0.064636,0.010816,0.004995
9.420000,9.494651,0.131010,0.184706,-0.066210,0.015563,0.003325
9.430000,9.688262,0.150631,0.298782,-0.067524,0.010572,0.005163
9.440000,9.810651,0.077056,0.283218,-0.067653,0.012396,0.003701
9.450000,9.920823,-0.038093,0.244160,-0.067678,0.014705,0.001887
9.460000,9.957399,-0.098576,0.212254,-0.068094,0.012874,0.000223
9.470000,9.943730,-0.046138,0.222071,-0.068510,0.011044,-0.001441
9.480000,9.930062,0.006299,0.231887,-0.068926,0.009214,-0.003105
9.490000,9.916393,0.058736,0.241704,-0.069414,0.008148,-0.004356
9.500000,9.902725,0.111173,0.251520,-0.070014,0.008286,-0.004957
9.510000,9.909730,0.219428,0.263513,-0.070614,0.008425,-0.005557
9.520000,9.925621,0.351672,0.276441,-0.071293,0.007869,-0.005918
9.530000,9.909893,0.301964,0.235541,-0.072941,0.005416,-0.003501
9.540000,9.781166,0.163315,0.208158,-0.073437,0.005792,-0.002565
9.550000,9.801153,0.227159,0.207758,-0.073758,0.004746,-0.001840
9.560000,9.951659,0.383257,0.155199,-0.074128,0.004246,-0.001955
9.570000,9.883108,0.331251,0.161887,-0.075042,0.003507,-0.001780
9.580000,9.771221,0.239816,0.183242,-0.076136,0.002686,-0.001506
9.590000,9.713868,0.252801,0.160659,-0.076664,0.002557,-0.001840
9.600000,9.667460,0.286741,0.129259,-0.076664,0.003069,-0.002736
9.610000,9.644300,0.306200,0.109940,-0.076592,0.003763,-0.003632
9.620000,9.694929,0.279696,0.128968,-0.076061,0.005620,-0.004516
9.630000,9.723181,0.231890,0.132381,-0.075836,0.006393,-0.005337
9.640000,9.726942,0.160772,0.118704,-0.076055,0.005593,-0.006064
9.650000,9.847602,0.245843,0.150179,-0.076590,0.006320,-0.006652
9.660000,9.594498,0.403512,0.065014,-0.077300,0.008327,-0.006942
9.670000,9.757242,0.319846,0.131840,-0.075637,0.003009,-0.006877
9.680000,9.886887,0.247701,0.141096,-0.074639,0.003342,-0.006584
9.690000,9.815004,0.277445,0.129325,-0.074945,0.006135,-0.006594
9.700000,9.700715,0.356672,0.160004,-0.075847,0.003930,-0.004388
9.710000,9.689148,0.480659,0.179246,-0.075046,0.006533,-0.001049
9.720000,9.721658,0.262852,-0.065227,-0.074692,0.007840,-0.001266
9.730000,9.743575,0.254666,0.198237,-0.075074,-0.000723,0.001108
9.740000,9.863191,0.458456,0.213004,-0.075952,0.001158,0.001484
9.750000,9.757859,0.415605,0.070854,-0.075255,0.003949,0.004039
9.760000,9.748154,0.311723,0.165017,-0.075444,0.001464,0.004452
9.770000,9.807237,0.300859,0.210349,-0.076612,0.002381,0.005119
9.780000,9.625675,0.380397,0.086139,-0.077274,0.001045,0.006336
9.790000,9.937203,0.457692,0.174657,-0.077274,-0.001725,0.008227
9.800000,9.954195,0.423263,0.215962,-0.077405,-0.001449,0.009682
9.810000,9.781179,0.362230,0.194437,-0.077740,-0.001248,0.010619
9.820000,9.654638,0.315033,0.171194,-0.078115,-0.000950,0.011510
9.830000,9.645205,0.302697,0.143619,-0.078821,0.000140,0.012023
9.840000,9.635771,0.290361,0.116045,-0.079526,0.001231,0.012536
9.850000,9.626338,0.278025,0.088470,-0.080231,0.002321,0.013049
9.860000,9.623807,0.311084,0.070119,-0.080937,0.003411,0.013562
9.870000,9.621391,0.344903,0.051921,-0.081499,0.004500,0.013955
9.880000,9.618976,0.378721,0.033724,-0.081792,0.005587,0.014122
9.890000,9.625996,0.385894,0.028681,-0.082085,0.006675,0.014290
9.900000,9.659121,0.319347,0.060032,-0.082378,0.007763,0.014457
9.910000,9.709669,0.274608,0.104089,-0.083774,0.003301,0.014799
9.920000,9.769212,0.267461,0.141812,-0.083398,0.006155,0.015995
9.930000,9.729076,0.192778,0.078815,-0.083335,0.006842,0.015987
9.940000,9.688941,0.118096,0.015817,-0.083285,0.007443,0.015937
9.950000,9.600014,0.109770,0.078055,-0.083235,0.008044,0.015887
9.960000,9.508948,0.104352,0.145781,-0.083599,0.008684,0.015956
9.970000,9.444925,0.102139,0.198640,-0.083979,0.009364,0.016015
9.980000,9.672972,0.134537,0.090928,-0.083209,0.011865,0.014956
9.990000,9.599193,0.116377,0.031929,-0.082919,0.013727,0.013548
10.000000,9.585453,0.138867,0.033515,-0.083252,0.014290,0.013241
10.010000,9.665472,0.190441,0.050707,-0.083578,0.014453,0.014302
10.020000,9.636746,0.165798,0.090087,-0.083777,0.013579,0.013776
10.030000,9.637820,0.125333,0.101209,-0.083911,0.012175,0.012439
10.040000,9.686413,0.089318,0.085202,-0.083789,0.012585,0.011606
10.050000,9.634061,0.166742,0.048301,-0.083645,0.015119,0.011681
10.060000,9.705376,0.138031,0.144932,-0.084673,0.015119,0.011975
10.070000,9.692474,0.127928,0.169683,-0.085587,0.015846,0.012283
10.080000,9.632904,0.169710,0.050115,-0.086056,0.016916,0.012753
10.090000,9.798574,0.195396,0.058495,-0.086745,0.013441,0.013441
10.100000,9.822566,0.206143,0.110228,-0.087800,0.014497,0.014497
10.110000,9.846558,0.216889,0.161960,-0.088856,0.015552,0.015552
10.120000,9.753662,0.106937,0.171706,-0.089909,0.012024,0.017277
10.130000,9.961155,0.107618,0.184991,-0.090888,0.011434,0.017245
10.140000,9.831836,0.086198,0.203841,-0.092401,0.012914,0.015146
10.150000,9.863013,0.060667,0.217798,-0.093987,0.011972,0.014189
10.160000,9.933433,0.040777,0.223173,-0.094758,0.012182,0.013068
10.170000,9.884868,0.003945,0.189059,-0.095400,0.012312,0.011892
10.180000,9.789967,-0.039827,0.147906,-0.094944,0.011766,0.010252
10.190000,9.802510,-0.069982,0.183399,-0.095672,0.012236,0.008740
10.200000,9.815052,-0.100137,0.218891,-0.097975,0.014059,0.007396
10.210000,9.719113,-0.019745,0.214652,-0.097703,0.012202,0.006855
10.220000,9.886776,0.383104,0.155126,-0.097201,0.012345,0.008923
10.230000,9.732455,0.369857,0.076238,-0.096934,0.018224,0.012257
10.240000,9.758585,0.285554,0.047628,-0.096750,0.018455,0.013135
10.250000,9.784715,0.201252,0.019019,-0.096565,0.018686,0.014013
10.260000,9.795105,0.135160,-0.001079,-0.096380,0.018917,0.014892
10.270000,9.714073,0.174842,0.028266,-0.096364,0.017909,0.015813
10.280000,9.663804,0.108808,0.045412,-0.096364,0.016786,0.016738
10.290000,9.670334,-0.152415,0.040034,-0.096695,0.020639,0.015286
10.300000,9.805297,-0.101709,0.189842,-0.096913,0.021394,0.012823
10.310000,9.799360,0.045057,0.110547,-0.097817,0.021858,0.009796
10.320000,9.775760,-0.161929,0.155573,-0.098884,0.023499,0.006608
10.330000,9.763256,-0.382100,0.222983,-0.099653,0.023307,0.003754
10.340000,9.835039,-0.343243,0.254656,-0.100421,0.023115,0.000901
10.350000,9.932881,-0.224298,0.275280,-0.101189,0.022923,-0.001953
10.360000,10.030723,-0.105352,0.295903,-0.101958,0.022731,-0.004807
10.370000,10.116477,0.009532,0.313558,-0.103276,0.025466,-0.006870
10.380000,9.606011,-0.069219,0.189724,-0.105260,0.031116,-0.006413
10.390000,9.554598,-0.020971,0.266208,-0.106291,0.030314,-0.004074
10.400000,9.991437,0.082400,0.475561,-0.106520,0.024852,-0.001854
10.410000,10.226042,0.104797,0.498718,-0.107110,0.030246,-0.000336
10.420000,9.774447,-0.191423,0.482444,-0.108101,0.029826,0.000093
10.430000,9.875958,-0.224817,0.523144,-0.109387,0.025143,-0.000274
10.440000,9.910167,-0.111307,0.570569,-0.111882,0.027238,-0.001214
10.450000,9.818773,-0.236721,0.633129,-0.113694,0.025762,-0.001887
10.460000,9.919946,-0.254073,0.728007,-0.114385,0.024952,-0.003307
10.470000,10.126037,-0.192029,0.800613,-0.114385,0.026528,-0.005547
10.480000,10.239492,-0.079739,0.666821,-0.114844,0.025368,-0.006721
10.490000,10.170902,-0.032765,0.662802,-0.115518,0.022928,-0.007395
10.500000,10.102312,0.014208,0.658784,-0.116192,0.020488,-0.008069
10.510000,10.033722,0.061182,0.654765,-0.116867,0.018048,-0.008743
10.520000,9.965305,0.083535,0.649016,-0.117541,0.015608,-0.009418
10.530000,9.897706,-0.011161,0.635040,-0.118034,0.014614,-0.009468
10.540000,9.871330,-0.087512,0.635568,-0.118525,0.013641,-0.009458
10.550000,10.025023,0.000496,0.671649,-0.120007,0.006878,-0.008705
10.560000,9.848202,0.025401,0.563730,-0.120641,0.008286,-0.008705
10.570000,9.764817,0.042164,0.473620,-0.121309,0.007268,-0.008346
10.580000,10.038931,0.151891,0.553060,-0.121804,0.001558,-0.006655
10.590000,10.186068,0.360999,0.542463,-0.121995,-0.001975,-0.004554
10.600000,9.791324,0.290464,0.600206,-0.123662,-0.000391,0.002018
10.610000,9.780117,0.237189,0.614296,-0.124852,0.000797,0.005347
10.620000,9.844438,0.209325,0.564371,-0.125963,0.001852,0.008236
10.630000,9.880188,0.161917,0.510777,-0.126883,0.002785,0.010846
10.640000,9.810717,0.042535,0.443667,-0.126724,0.003024,0.011882
10.650000,10.041959,-0.250676,0.621940,-0.127675,0.001276,0.009672
10.660000,9.821187,-0.314358,0.384244,-0.129743,0.006351,0.002411
10.670000,9.709818,-0.039415,0.328945,-0.130948,0.003021,0.001406
10.680000,9.728266,-0.054203,0.485506,-0.131262,0.000822,-0.001185
10.690000,9.904843,-0.113186,0.615713,-0.132412,-0.001590,-0.003297
10.700000,9.939850,-0.048609,0.714347,-0.135101,-0.002960,-0.003374
10.710000,9.844782,0.114413,0.770104,-0.136845,-0.001948,-0.002259
10.720000,9.747825,0.046295,0.648820,-0.137648,-0.000212,-0.000154
10.730000,9.880065,-0.171794,0.600587,-0.139695,-0.005167,0.003279
10.740000,9.979646,-0.043620,0.611802,-0.140451,-0.006959,0.005840
10.750000,9.961596,-0.055218,0.637504,-0.140613,-0.006147,0.007787
10.760000,9.932279,-0.127429,0.689656,-0.142170,-0.007559,0.010524
10.770000,10.013420,-0.292029,0.687818,-0.143626,-0.007055,0.013046
10.780000,10.151096,-0.193316,0.875038,-0.145029,-0.009942,0.014609
10.790000,10.070254,-0.115989,0.827002,-0.146670,-0.008655,0.014496
10.800000,9.973304,-0.098615,0.780632,-0.148314,-0.007180,0.014326
10.810000,9.860176,-0.141463,0.735935,-0.149998,-0.008285,0.014602
10.820000,9.984050,-0.085501,0.492388,-0.153212,-0.011055,0.016415
10.830000,9.851713,-0.082273,0.496019,-0.155593,-0.011469,0.016933
10.840000,9.500486,-0.080325,0.479351,-0.155963,-0.008830,0.016344
10.850000,9.671329,-0.067076,0.579067,-0.156532,-0.009651,0.015902
10.860000,9.646077,-0.110332,0.537460,-0.157100,-0.010472,0.015460
10.870000,9.523673,-0.184972,0.475327,-0.158816,-0.005731,0.015155
10.880000,9.408996,-0.259365,0.516754,-0.158698,-0.008988,0.012755
10.890000,9.613155,-0.155435,0.565205,-0.158765,-0.007711,0.011344
10.900000,9.880882,-0.090503,0.609511,-0.158678,-0.007044,0.009492
10.910000,9.772827,-0.025989,0.608661,-0.157841,-0.007059,0.007262
10.920000,9.620806,-0.053281,0.487782,-0.159245,-0.005603,0.009425
10.930000,9.770668,0.059805,0.683320,-0.158598,-0.011442,0.012332
10.940000,9.834214,0.035674,0.731583,-0.158459,-0.009629,0.014986
10.950000,9.897761,0.011542,0.779846,-0.158395,-0.007176,0.017633
10.960000,9.897030,0.020256,0.570499,-0.157280,-0.007773,0.020389
10.970000,9.957048,0.123737,0.681434,-0.157567,-0.012667,0.023973
10.980000,9.738829,0.122636,0.707938,-0.159523,-0.010327,0.027789
10.990000,9.895195,0.103781,0.622396,-0.160039,-0.012701,0.030472
11.000000,10.121434,-0.232257,0.865870,-0.160494,-0.017046,0.031510
11.010000,10.180986,-0.199738,0.755386,-0.160879,-0.014810,0.030816
11.020000,9.845265,-0.100703,0.716643,-0.161834,-0.013636,0.029978
11.030000,9.929232,-0.141986,0.808328,-0.163690,-0.014147,0.028910
11.040000,9.988294,-0.123132,0.819636,-0.165546,-0.014657,0.027843
11.050000,10.033124,-0.081854,0.801873,-0.167404,-0.015333,0.026871
11.060000,10.077955,-0.040576,0.784110,-0.169268,-0.017555,0.026799
11.070000,10.043146,-0.056447,0.748634,-0.171132,-0.019778,0.026728
11.080000,10.076078,-0.199171,0.803510,-0.172560,-0.023298,0.025880
11.090000,10.091384,-0.248414,0.864853,-0.173972,-0.026863,0.025006
11.100000,9.914055,-0.041395,0.888036,-0.174611,-0.028365,0.024044
11.110000,9.943898,-0.075810,0.843424,-0.174954,-0.028850,0.023334
11.120000,10.035232,-0.181886,0.778689,-0.175507,-0.028771,0.024045
11.130000,9.825014,-0.331980,0.633723,-0.175991,-0.029663,0.024567
11.140000,9.764805,-0.052802,0.710632,-0.176253,-0.033675,0.024479
11.150000,9.814901,0.035137,0.712074,-0.176387,-0.032616,0.024805
11.160000,9.542644,-0.168165,0.470627,-0.176329,-0.027123,0.025445
11.170000,9.542326,-0.230655,0.542523,-0.175614,-0.031964,0.024731
11.180000,9.603771,-0.211060,0.692306,-0.175013,-0.035956,0.023840
11.190000,9.473669,-0.209998,0.686464,-0.175013,-0.035419,0.022005
11.200000,9.355604,-0.213734,0.679405,-0.175013,-0.034882,0.020170
11.210000,9.660990,-0.386265,0.629509,-0.175013,-0.034345,0.018335
11.220000,9.949248,-0.552323,0.584109,-0.175174,-0.031315,0.016743
11.230000,9.773796,-0.543133,0.660417,-0.175619,-0.028387,0.015083
11.240000,9.598343,-0.533943,0.736725,-0.176532,-0.027404,0.013116
11.250000,9.734897,-0.570555,0.555566,-0.177522,-0.027027,0.011185
11.260000,9.837952,-0.606690,0.445987,-0.178935,-0.029961,0.009446
11.270000,9.653382,-0.445879,0.796379,-0.179614,-0.029883,0.008523
11.280000,9.664300,-0.435292,0.869825,-0.181295,-0.029717,0.008293
11.290000,9.806350,-0.443188,0.840534,-0.184286,-0.030371,0.009072
11.300000,10.073512,-0.478346,0.688675,-0.184792,-0.028878,0.010131
11.310000,9.806805,-0.528714,0.820740,-0.186641,-0.029943,0.009272
11.320000,9.667768,-0.561432,0.822843,-0.187746,-0.031011,0.009554
11.330000,9.784221,-0.509821,0.725349,-0.189666,-0.030782,0.009472
11.340000,9.849393,-0.540538,0.771051,-0.191398,-0.031715,0.008355
11.350000,9.791907,-0.579845,0.711718,-0.192262,-0.028737,0.007491
11.360000,9.856192,-0.497292,0.744289,-0.195150,-0.032743,0.005125
11.370000,9.620709,-0.432983,0.544797,-0.197161,-0.028884,0.005130
11.380000,9.593459,-0.369898,0.650894,-0.198263,-0.033570,0.004678
11.390000,9.611256,-0.439572,0.723595,-0.197735,-0.031812,0.002909
11.400000,9.526083,-0.545523,0.672142,-0.197760,-0.029715,0.001873
11.410000,9.529898,-0.575176,0.528019,-0.199279,-0.031001,-0.001327
11.420000,9.735819,-0.451262,0.725824,-0.199801,-0.036430,-0.003751
11.430000,9.584753,-0.511246,0.579799,-0.200200,-0.028186,-0.005745
11.440000,9.596957,-0.596118,0.744297,-0.200514,-0.033398,-0.008377
11.450000,9.746146,-0.365492,0.489376,-0.200793,-0.029752,-0.007661
11.460000,9.656596,-0.328613,0.381649,-0.201193,-0.028648,-0.007178
11.470000,9.642765,-0.377348,0.541807,-0.201540,-0.032788,-0.005895
11.480000,9.959544,-0.258699,0.732868,-0.201609,-0.036697,-0.002530
11.490000,9.928478,-0.233951,0.776834,-0.202894,-0.034805,0.000174
11.500000,9.903637,-0.197649,0.815003,-0.204178,-0.032912,0.002877
11.510000,9.973026,-0.081823,0.950064,-0.206841,-0.032521,0.011184
11.520000,9.965076,-0.253906,0.757864,-0.208962,-0.029394,0.014801
11.530000,9.977927,-0.447776,0.742683,-0.212280,-0.031385,0.016828
11.540000,10.023652,-0.373463,0.722323,-0.214254,-0.031313,0.018471
11.550000,10.072267,-0.265665,0.690090,-0.216056,-0.031756,0.018389
11.560000,9.809378,-0.479247,0.588886,-0.218069,-0.033076,0.018075
11.570000,9.844854,-0.508642,0.602397,-0.220565,-0.036403,0.017243
11.580000,9.911902,-0.513422,0.626030,-0.222843,-0.035533,0.016008
11.590000,9.978951,-0.518202,0.649663,-0.225079,-0.033823,0.014693
11.600000,10.045999,-0.522981,0.673296,-0.227314,-0.032114,0.013379
11.610000,9.993448,-0.311360,0.709446,-0.229182,-0.030442,0.013042
11.620000,9.843870,-0.416887,0.640063,-0.230365,-0.028838,0.014531
11.630000,9.694292,-0.522415,0.570680,-0.231549,-0.027235,0.016020
11.640000,9.544715,-0.627942,0.501296,-0.232732,-0.025632,0.017509
11.650000,9.563952,-0.720543,0.455222,-0.233622,-0.024389,0.018320
11.660000,9.659239,-0.675934,0.399717,-0.233958,-0.023801,0.017874
11.670000,9.513806,-0.551311,0.347136,-0.233259,-0.018342,0.019414
11.680000,9.322782,-0.623581,0.432559,-0.234044,-0.019184,0.018796
11.690000,9.476172,-0.669416,0.419399,-0.234403,-0.016785,0.018495
11.700000,9.496064,-0.711433,0.467613,-0.234313,-0.011002,0.018386
11.710000,9.454284,-0.663391,0.453659,-0.235017,-0.009789,0.016885
11.720000,9.518063,-0.712057,0.502334,-0.234626,-0.005884,0.014998
11.730000,9.587898,-0.774938,0.563186,-0.234236,-0.001980,0.013111
11.740000,9.578966,-0.931707,0.491675,-0.234236,-0.006418,0.008957
11.750000,9.857756,-0.912876,0.475141,-0.234817,-0.008625,0.006518
11.760000,9.694379,-0.931679,0.621999,-0.236604,-0.005675,0.002481
11.770000,9.783220,-0.943867,0.802096,-0.237528,-0.008744,-0.002187
11.780000,9.842497,-0.832949,0.793854,-0.239193,-0.004901,-0.005326
11.790000,9.813879,-0.857410,0.750847,-0.240858,-0.001059,-0.008464
11.800000,9.785260,-0.881872,0.707839,-0.243107,-0.000010,-0.009789
11.810000,9.756642,-0.906333,0.664832,-0.245404,0.000807,-0.010963
11.820000,9.703280,-0.769497,0.545422,-0.247701,0.001624,-0.012137
11.830000,9.692360,-0.686092,0.625724,-0.252149,0.003568,-0.010256
11.840000,9.876507,-0.649634,0.369040,-0.255749,0.009476,-0.007912
11.850000,9.760831,-0.756478,0.623312,-0.258400,0.009109,-0.006565
11.860000,9.571926,-0.678120,0.561435,-0.260769,0.010970,-0.005632
11.870000,9.609802,-0.668671,0.484116,-0.263103,0.013972,-0.004798
11.880000,9.440081,-0.885033,0.488999,-0.265937,0.019154,-0.005792
11.890000,9.412189,-0.815801,0.532332,-0.267848,0.019739,-0.007079
11.900000,9.384296,-0.746568,0.575664,-0.269758,0.020324,-0.008366
11.910000,9.370301,-0.759668,0.583384,-0.271668,0.020908,-0.009652
11.920000,9.371369,-0.784759,0.579316,-0.273359,0.021005,-0.011065
11.930000,9.651937,-0.456294,0.558132,-0.273994,0.020345,-0.012536
11.940000,9.657867,-0.388825,0.599603,-0.274422,0.021558,-0.013320
11.950000,9.635706,-0.422868,0.629471,-0.274543,0.020517,-0.012995
11.960000,9.723003,-0.403247,0.855138,-0.273870,0.015826,-0.011861
11.970000,9.683511,-0.335268,0.686043,-0.273997,0.017993,-0.011144
11.980000,9.774543,-0.383258,0.659255,-0.274413,0.016588,-0.010341
11.990000,9.722810,-0.437675,0.897547,-0.274388,0.014768,-0.009186
12.000000,9.579572,-0.327754,0.488099,-0.272390,0.021511,-0.005814
12.010000,9.637251,-0.496806,0.499477,-0.271871,0.013707,-0.006495
12.020000,9.697859,-0.532116,0.561619,-0.271613,0.011939,-0.007010
12.030000,9.767605,-0.444053,0.453300,-0.271712,0.017735,-0.007887
12.040000,9.539676,-0.540390,0.694074,-0.270979,0.014799,-0.008392
12.050000,9.870154,-0.371841,0.459328,-0.269418,0.017141,-0.008262
12.060000,9.759455,-0.705215,0.487763,-0.269725,0.018969,-0.010405
12.070000,9.401858,-0.773485,0.632588,-0.270215,0.021626,-0.011733
12.080000,9.449886,-0.535424,0.639576,-0.270233,0.022738,-0.012278
12.090000,9.736968,-0.433238,0.561913,-0.271269,0.026778,-0.011863
12.100000,9.791588,-0.439568,0.618174,-0.273139,0.030082,-0.009854
12.110000,9.846208,-0.445897,0.674435,-0.274315,0.026750,-0.009364
12.120000,9.824961,-0.328901,0.704489,-0.275489,0.033613,-0.008357
12.130000,9.849776,-0.422625,0.640022,-0.276271,0.036177,-0.006529
12.140000,10.089954,-0.553520,0.754043,-0.278239,0.037278,-0.006049
12.150000,10.104856,-0.516865,0.788719,-0.279699,0.037558,-0.006845
12.160000,9.965561,-0.585119,0.731913,-0.280608,0.042991,-0.008247
12.170000,10.356995,-0.645238,0.845741,-0.280930,0.040139,-0.008544
12.180000,10.313045,-0.595009,0.780973,-0.282519,0.039302,-0.010647
12.190000,10.226339,-0.473806,0.782896,-0.284498,0.041128,-0.013311
12.200000,10.036345,-0.260053,0.892220,-0.286301,0.042504,-0.013035
12.210000,9.865179,-0.243905,0.858956,-0.287412,0.042884,-0.010436
12.220000,9.854156,-0.248340,0.855744,-0.287665,0.041638,-0.007102
12.230000,10.025361,-0.276196,0.886730,-0.288292,0.039993,-0.003890
12.240000,10.070504,-0.137554,0.848970,-0.288386,0.039740,-0.000997
12.250000,10.030340,-0.007210,0.786747,-0.287849,0.040877,0.001515
12.260000,10.032528,-0.255393,0.806444,-0.287474,0.037249,0.004017
12.270000,10.041462,-0.352541,0.809278,-0.286813,0.037548,0.006884
12.280000,9.994949,-0.380532,0.922947,-0.285763,0.033934,0.005280
12.290000,10.149515,-0.388122,0.979689,-0.284454,0.034592,0.003762
12.300000,10.039262,-0.469810,0.877917,-0.284383,0.034506,0.001079
12.310000,9.919909,-0.558345,0.840315,-0.284604,0.033549,-0.001940
12.320000,9.995299,-0.478112,0.838909,-0.283449,0.032231,-0.005722
12.330000,9.733837,-0.553329,0.777374,-0.283909,0.032790,-0.009864
12.340000,9.265550,-0.559683,0.706654,-0.283985,0.034210,-0.011564
12.350000,9.344338,-0.555831,0.765545,-0.283473,0.031884,-0.013574
12.360000,9.423126,-0.551980,0.824435,-0.282960,0.029558,-0.015585
12.370000,9.501915,-0.548129,0.883326,-0.282448,0.027232,-0.017596
12.380000,9.504862,-0.505600,0.925160,-0.281920,0.026188,-0.019334
12.390000,9.442136,-0.579967,0.969127,-0.281720,0.027605,-0.019296
12.400000,9.399969,-0.805533,1.033533,-0.281965,0.027523,-0.018071
12.410000,9.362662,-0.837714,0.942309,-0.282210,0.027441,-0.016846
12.420000,9.331453,-0.627222,0.655788,-0.282455,0.027360,-0.015621
12.430000,9.377472,-0.632828,0.684594,-0.283314,0.023719,-0.014669
12.440000,9.416810,-0.693584,0.838458,-0.284417,0.018655,-0.013825
12.450000,9.350343,-0.614182,0.881932,-0.285942,0.018707,-0.013431
12.460000,9.377393,-0.656232,0.897754,-0.287718,0.023636,-0.013869
12.470000,9.453726,-0.762284,0.899006,-0.288244,0.020238,-0.014200
12.480000,9.530947,-0.761034,0.905833,-0.289294,0.019684,-0.014825
12.490000,9.505986,-0.762625,0.961424,-0.291004,0.018600,-0.016410
12.500000,9.472395,-0.767614,1.020956,-0.292713,0.017516,-0.017995
12.510000,9.438804,-0.772602,1.080488,-0.294423,0.016431,-0.019580
12.520000,9.533221,-0.730257,1.115111,-0.296397,0.011704,-0.023968
12.530000,9.830263,-0.599843,1.045832,-0.297422,0.010040,-0.025120
12.540000,9.830771,-0.519745,0.760093,-0.300042,0.015169,-0.027607
12.550000,9.870959,-0.378045,0.889886,-0.302180,0.012956,-0.027585
12.560000,9.911325,-0.237610,1.020139,-0.304271,0.010130,-0.027359
12.570000,9.964418,-0.187414,1.183277,-0.305806,0.010470,-0.025877
12.580000,9.916036,-0.191790,0.728037,-0.305914,0.012510,-0.020316
12.590000,10.221004,0.022603,0.675433,-0.307392,0.008381,-0.016300
12.600000,10.150978,-0.029229,0.836232,-0.309237,0.008118,-0.012941
12.610000,10.124101,-0.101807,1.268467,-0.310714,0.006248,-0.008271
12.620000,10.151220,-0.268089,1.162355,-0.310037,0.007489,-0.006034
12.630000,10.134259,-0.424240,0.955214,-0.309044,0.010679,-0.005715
12.640000,10.275162,-0.482176,0.935996,-0.308837,0.011817,-0.004784
12.650000,10.495551,-0.511241,1.025380,-0.307465,0.013392,-0.006221
12.660000,10.340592,-0.556873,0.865192,-0.305992,0.014267,-0.008153
12.670000,10.115409,-0.752896,1.071521,-0.305181,0.012703,-0.009601
12.680000,10.235210,-0.683577,0.902745,-0.304370,0.011140,-0.011049
12.690000,10.214053,-0.653304,0.810567,-0.300858,0.011071,-0.017685
12.700000,10.037722,-0.666015,0.802709,-0.299044,0.008917,-0.020632
12.710000,9.861392,-0.678725,0.794852,-0.297230,0.006763,-0.023580
12.720000,9.866097,-0.431472,0.951317,-0.295837,0.005324,-0.025194
12.730000,9.894172,-0.481925,0.847359,-0.294780,0.004460,-0.025739
12.740000,9.922247,-0.532379,0.743400,-0.293724,0.003596,-0.026283
12.750000,9.918263,-0.559218,0.668855,-0.292668,0.002731,-0.026827
12.760000,9.813960,-0.512163,0.686352,-0.291612,0.001867,-0.027371
12.770000,9.709658,-0.465107,0.703849,-0.291617,0.003087,-0.026832
12.780000,9.605355,-0.418052,0.721346,-0.291917,0.004884,-0.025994
12.790000,9.617138,-0.326769,0.905945,-0.292651,0.004243,-0.024644
12.800000,9.653086,-0.373087,0.902489,-0.294416,0.005316,-0.021420
12.810000,9.667320,-0.365589,0.860336,-0.296192,0.007461,-0.018479
12.820000,9.600867,-0.355343,0.864121,-0.298579,0.007234,-0.018479
12.830000,9.749633,-0.262723,0.861480,-0.300150,0.007597,-0.015961
12.840000,9.771027,-0.190453,0.818467,-0.302087,0.008055,-0.014471
12.850000,9.528013,-0.170370,0.918675,-0.304288,0.008944,-0.012607
12.860000,9.440871,-0.188347,0.914885,-0.307192,0.011243,-0.009098
12.870000,9.403963,-0.208429,0.880419,-0.310096,0.013542,-0.005589
12.880000,9.506178,-0.230778,0.842342,-0.311809,0.013364,-0.003862
12.890000,9.684861,-0.254373,0.802280,-0.313043,0.012186,-0.002853
12.900000,9.677752,-0.085092,0.657833,-0.314276,0.011009,-0.001844
12.910000,10.060528,-0.035161,1.000177,-0.315169,0.002910,0.003782
12.920000,9.819979,-0.221265,0.950464,-0.316623,0.010791,0.005104
12.930000,9.679576,-0.421104,1.042963,-0.317078,0.009841,0.006522
12.940000,9.874689,-0.141381,1.080189,-0.316000,0.009091,0.009081
12.950000,9.973126,0.158042,0.782257,-0.314666,0.010175,0.011915
12.960000,9.906951,0.199138,0.770035,-0.314635,0.007973,0.017010
12.970000,9.820014,0.202991,0.810069,-0.314676,0.005589,0.022231
12.980000,9.733077,0.206844,0.850104,-0.314717,0.003205,0.027452
12.990000,9.649503,0.140747,0.856251,-0.314592,0.001531,0.031583
13.000000,9.574009,-0.093435,0.780971,-0.313917,0.002206,0.032113
13.010000,9.498515,-0.327616,0.705691,-0.313243,0.002880,0.032642
13.020000,9.536255,-0.413459,0.737679,-0.312676,0.002655,0.033030
13.030000,9.709961,-0.381815,0.885092,-0.313418,-0.008399,0.031504
13.040000,9.844125,-0.482980,0.948464,-0.312895,-0.008113,0.030838
13.050000,9.758640,-0.651041,0.890746,-0.312633,-0.004438,0.028738
13.060000,9.669004,-0.595832,0.955780,-0.311939,-0.007577,0.026927
13.070000,9.729886,-0.477758,0.817412,-0.311823,-0.008070,0.023706
13.080000,9.787444,-0.469487,0.821083,-0.311452,-0.008229,0.021512
13.090000,9.872753,-0.501561,0.910388,-0.309947,-0.012464,0.022453
13.100000,9.925956,-0.520576,0.993799,-0.310297,-0.010292,0.021426
13.110000,9.838561,-0.491681,0.984269,-0.310713,-0.010288,0.022353
13.120000,9.895990,-0.491188,1.025642,-0.310439,-0.011199,0.024281
13.130000,9.833903,-0.608893,0.938927,-0.311036,-0.010488,0.025690
13.140000,9.738962,-0.859360,0.831603,-0.312094,-0.011019,0.026383
13.150000,9.872901,-0.783638,0.989973,-0.312309,-0.013352,0.025905
13.160000,9.947299,-0.735938,1.043013,-0.312424,-0.011053,0.024411
13.170000,9.956264,-0.842167,1.022057,-0.312000,-0.009101,0.021717
13.180000,10.047368,-0.800318,1.139084,-0.311023,-0.013202,0.019178
13.190000,9.993945,-0.761347,0.994993,-0.312467,-0.010686,0.012280
13.200000,9.684286,-0.849679,1.099231,-0.314188,-0.014200,0.010843
13.210000,10.068474,-0.850902,1.161784,-0.315457,-0.019722,0.012073
13.220000,9.830798,-0.860871,1.056807,-0.315094,-0.016636,0.010822
13.230000,9.643526,-0.849138,0.941222,-0.314409,-0.014354,0.009201
13.240000,9.726546,-0.807761,0.934133,-0.313745,-0.018149,0.008253
13.250000,9.804230,-0.778789,0.978706,-0.314911,-0.017584,0.006663
13.260000,9.568992,-0.824133,0.752602,-0.315748,-0.020220,0.005283
13.270000,9.743574,-0.798554,0.831426,-0.315817,-0.022815,0.002923
13.280000,9.543393,-0.822630,1.005466,-0.315680,-0.019901,0.000399
13.290000,9.489247,-0.902565,0.879923,-0.314977,-0.015501,-0.002941
13.300000,9.840663,-0.883237,0.672148,-0.313597,-0.015304,-0.005010
13.310000,9.671784,-0.999388,0.598736,-0.312800,-0.012745,-0.009938
13.320000,9.639745,-1.059234,0.786505,-0.313110,-0.015510,-0.019227
13.330000,9.589995,-0.904298,0.799926,-0.312573,-0.012396,-0.025223
13.340000,9.586741,-0.854512,0.743577,-0.312745,-0.010037,-0.029340
13.350000,9.671301,-0.677020,0.722909,-0.312034,-0.010630,-0.030753
13.360000,9.643165,-0.560389,1.167427,-0.310977,-0.012364,-0.033432
13.370000,9.472426,-0.335151,0.830728,-0.309446,-0.005995,-0.031486
13.380000,9.753571,-0.363786,0.924020,-0.309166,-0.009662,-0.030230
13.390000,9.796821,-0.437100,0.908303,-0.308796,-0.011551,-0.028341
13.400000,9.793355,-0.409186,0.778336,-0.308366,-0.009621,-0.024654
13.410000,9.802473,-0.356467,0.839965,-0.308936,-0.012270,-0.022411
13.420000,9.817594,-0.302599,0.980147,-0.309681,-0.015545,-0.020476
13.430000,9.826267,-0.313177,0.863068,-0.310563,-0.013622,-0.019217
13.440000,9.934481,-0.416362,0.982207,-0.312025,-0.016340,-0.017079
13.450000,9.972224,-0.397525,0.955010,-0.312149,-0.015598,-0.017698
13.460000,9.865604,-0.242648,0.918689,-0.314967,-0.014430,-0.014958
13.470000,9.932204,-0.268847,0.859979,-0.316178,-0.014672,-0.012940
13.480000,9.960861,-0.351526,0.748817,-0.317229,-0.014394,-0.011797
13.490000,9.938089,-0.481530,0.616250,-0.318056,-0.013384,-0.011889
13.500000,9.772402,-0.489933,0.801794,-0.318261,-0.010599,-0.012267
13.510000,9.675266,-0.493434,0.723910,-0.318261,-0.007231,-0.012738
13.520000,9.864596,-0.639890,0.604546,-0.318024,-0.007511,-0.013218
13.530000,9.778835,-0.525370,0.721836,-0.317724,-0.007492,-0.012036
13.540000,9.678589,-0.402275,0.846961,-0.317454,-0.006791,-0.010581
13.550000,9.723012,-0.457359,0.827161,-0.317171,-0.006119,-0.009193
13.560000,9.767435,-0.512444,0.807361,-0.316353,-0.006528,-0.010380
13.570000,9.811858,-0.567529,0.787561,-0.315534,-0.006938,-0.011567
13.580000,9.856281,-0.622613,0.767761,-0.314716,-0.007347,-0.012754
13.590000,9.854316,-0.623997,0.768468,-0.313652,-0.007418,-0.013349
13.600000,9.768804,-0.528666,0.806110,-0.312001,-0.006675,-0.012524
13.610000,9.875042,-0.534869,0.930901,-0.310695,-0.005873,-0.012508
13.620000,10.081505,-0.619429,0.925984,-0.309906,-0.004813,-0.013503
13.630000,10.096708,-0.683547,0.855063,-0.309415,-0.003096,-0.014484
13.640000,9.768861,-0.675341,0.768314,-0.308459,-0.004951,-0.015347
13.650000,9.930385,-0.658716,0.993579,-0.306760,-0.011548,-0.016228
13.660000,10.080139,-0.681051,1.023969,-0.305587,-0.009415,-0.018254
13.670000,9.808747,-0.533334,0.973225,-0.305195,-0.010606,-0.018912
13.680000,9.814911,-0.475984,0.986088,-0.305079,-0.012972,-0.019085
13.690000,9.899976,-0.375562,0.884787,-0.305185,-0.014893,-0.019122
13.700000,10.035980,-0.301935,0.895191,-0.307311,-0.013714,-0.017386
13.710000,10.119231,-0.262386,0.993296,-0.308635,-0.019628,-0.013149
13.720000,9.905954,-0.239697,0.968905,-0.310877,-0.016724,-0.008333
13.730000,9.692678,-0.217008,0.944514,-0.312091,-0.019744,-0.004068
13.740000,9.888404,-0.183412,0.990108,-0.312834,-0.020807,-0.000230
13.750000,10.088840,-0.149692,1.036508,-0.313379,-0.020862,0.003425
13.760000,10.138419,-0.161126,0.923658,-0.313924,-0.020916,0.007079
13.770000,10.136411,-0.191576,0.780699,-0.315874,-0.021788,0.007326
13.780000,10.072338,-0.275861,0.812377,-0.317746,-0.022678,0.006951
13.790000,10.008264,-0.360145,0.844055,-0.318334,-0.023140,0.005564
13.800000,9.944191,-0.444430,0.875734,-0.318923,-0.023602,0.004178
13.810000,9.880117,-0.528715,0.907412,-0.319511,-0.024064,0.002791
13.820000,9.964160,-0.569780,1.078688,-0.319826,-0.025576,0.001186
13.830000,10.057894,-0.592945,1.236861,-0.319898,-0.028024,-0.000613
13.840000,10.098291,-0.439522,1.061182,-0.318117,-0.029689,-0.003289
13.850000,9.891163,-0.599554,0.951872,-0.316591,-0.027820,-0.007890
13.860000,10.119411,-0.622109,0.837679,-0.316036,-0.029157,-0.007260
13.870000,9.882234,-0.467668,0.654037,-0.316616,-0.028675,-0.005741
13.880000,9.700572,-0.320233,0.546813,-0.317364,-0.027965,-0.004071
13.890000,9.590298,-0.266754,0.617768,-0.318887,-0.029226,0.001745
13.900000,9.289735,-0.361479,0.544213,-0.317650,-0.027518,0.005279
13.910000,9.222639,-0.397359,0.525555,-0.316413,-0.025810,0.008814
13.920000,9.302925,-0.329892,0.563442,-0.316542,-0.020104,0.012607
13.930000,9.213323,-0.440497,0.539994,-0.314754,-0.017263,0.014114
13.940000,9.225772,-0.558512,0.537799,-0.313284,-0.016056,0.015140
13.950000,9.157040,-0.743011,0.465476,-0.312371,-0.015752,0.014835
13.960000,9.037181,-0.722662,0.445362,-0.311479,-0.012273,0.012148
13.970000,9.073342,-0.616652,0.532094,-0.311980,-0.014565,0.011301
13.980000,9.261428,-0.462929,0.720918,-0.311861,-0.015875,0.010348
13.990000,9.224724,-0.638678,0.645935,-0.312393,-0.011302,0.009686
14.000000,9.367831,-0.456779,0.616508,-0.312394,-0.007725,0.009584
14.010000,9.565732,-0.211468,0.579485,-0.311484,-0.006815,0.010246
14.020000,9.289196,-0.327456,0.615363,-0.311083,-0.004194,0.011536
14.030000,9.576175,-0.321648,0.643982,-0.310927,-0.002425,0.015029
14.040000,9.659431,-0.263743,0.735483,-0.311049,-0.000611,0.018665
14.050000,9.704494,-0.344218,0.660929,-0.312045,0.002412,0.021244
14.060000,9.732857,-0.350190,0.696944,-0.312346,0.001211,0.023346
14.070000,9.805012,-0.386873,0.689512,-0.312575,0.003607,0.026755
14.080000,9.897119,-0.427715,0.664443,-0.312038,0.005039,0.027202
14.090000,9.976507,-0.464518,0.678761,-0.311977,0.006757,0.027088
14.100000,10.016203,-0.488713,0.815994,-0.312762,0.008983,0.025975
14.110000,9.874284,-0.654409,0.853685,-0.313535,0.011056,0.024767
14.120000,9.937224,-0.695330,0.926875,-0.313842,0.007675,0.020156
14.130000,10.062470,-0.658708,0.993298,-0.314247,0.008598,0.016580
14.140000,9.919833,-0.690264,0.906622,-0.314261,0.011243,0.013801
14.150000,9.976876,-0.645632,0.764620,-0.313071,0.011256,0.011513
14.160000,10.041159,-0.615705,0.692365,-0.311876,0.011980,0.009555
14.170000,9.874496,-0.595083,0.866613,-0.310887,0.007850,0.006275
14.180000,9.986956,-0.621168,1.012814,-0.310647,0.006490,0.003794
14.190000,9.989365,-0.538239,0.997329,-0.310328,0.005786,0.001972
14.200000,9.978504,-0.543177,0.993455,-0.309795,0.006851,0.001924
14.210000,9.947234,-0.683254,1.007437,-0.309263,0.007916,0.001875
14.220000,9.913023,-0.807106,1.011686,-0.307444,0.005570,-0.000612
14.230000,9.834019,-0.618567,0.829605,-0.304137,0.005842,-0.004474
14.240000,9.812386,-0.613269,0.759630,-0.303609,0.005020,-0.007000
14.250000,9.790753,-0.607972,0.689656,-0.303080,0.004197,-0.009525
14.260000,9.774068,-0.666007,0.782620,-0.302308,-0.000563,-0.012881
14.270000,9.894218,-0.593255,0.970844,-0.301423,-0.004833,-0.016153
14.280000,9.851564,-0.338991,0.841095,-0.300350,0.000433,-0.019045
14.290000,9.750740,-0.474562,0.743314,-0.299791,0.000367,-0.020195
14.300000,9.994294,-0.612785,0.752505,-0.297704,-0.001314,-0.020051
14.310000,9.910765,-0.434951,0.876001,-0.295235,-0.001482,-0.022155
14.320000,9.769334,-0.319520,0.882394,-0.293458,-0.001500,-0.023253
14.330000,9.639714,-0.255569,0.837760,-0.292090,-0.001454,-0.023572
14.340000,9.696347,-0.292532,0.817874,-0.290722,-0.001408,-0.023891
14.350000,9.752980,-0.329494,0.797988,-0.288572,-0.001333,-0.025595
14.360000,9.779638,-0.351777,0.798183,-0.284736,-0.001811,-0.030047
14.370000,9.762349,-0.352537,0.827822,-0.282154,-0.003613,-0.031801
14.380000,9.745060,-0.353297,0.857461,-0.279572,-0.005415,-0.033555
14.390000,9.785833,-0.318326,1.015439,-0.277262,-0.008214,-0.035375
14.400000,9.791137,-0.081963,0.813109,-0.276455,-0.003540,-0.035902
14.410000,9.658871,0.003396,0.544167,-0.276101,-0.000217,-0.034121
14.420000,9.925459,-0.014449,0.534318,-0.275452,-0.004633,-0.031188
14.430000,10.147729,-0.010235,0.630037,-0.274002,-0.006343,-0.028388
14.440000,9.760679,0.053564,0.788650,-0.272177,-0.002109,-0.026929
14.450000,9.638653,0.244683,0.845339,-0.271097,-0.001079,-0.021030
14.460000,9.760707,0.139166,0.642257,-0.270772,0.002229,-0.019523
14.470000,9.840344,0.050204,0.555589,-0.270794,0.003558,-0.017803
14.480000,9.880494,-0.000821,0.571064,-0.271171,0.002696,-0.015757
14.490000,9.920645,-0.051846,0.586538,-0.271548,0.001834,-0.013711
14.500000,9.648687,0.101663,0.762962,-0.271881,0.002717,-0.011791
14.510000,9.853665,-0.130455,0.793154,-0.273057,0.000634,-0.009036
14.520000,9.795165,0.024452,0.713389,-0.272897,0.005061,-0.008087
14.530000,9.860954,0.110154,0.575462,-0.272554,0.006216,-0.006539
14.540000,9.837293,0.131401,0.720814,-0.272814,0.005740,-0.003895
14.550000,9.813631,0.152649,0.866166,-0.273074,0.005263,-0.001252
14.560000,9.718774,0.051568,0.785350,-0.273334,0.004786,0.001391
14.570000,9.745528,-0.031984,0.738840,-0.273002,0.003562,0.006369
14.580000,9.904684,-0.096259,0.730040,-0.272545,0.003038,0.009951
14.590000,9.712770,-0.045898,0.664127,-0.272005,0.003794,0.010815
14.600000,9.495320,0.011785,0.597191,-0.270846,0.001096,0.015497
14.610000,9.580428,-0.070256,0.705684,-0.269887,0.000126,0.019362
14.620000,9.575847,-0.049392,0.718332,-0.269225,0.002831,0.021087
14.630000,9.574144,0.080122,0.635752,-0.267215,0.000467,0.024042
14.640000,9.643795,0.101079,0.562215,-0.266129,0.000371,0.026399
14.650000,9.663442,0.076851,0.512692,-0.265185,0.000623,0.028665
14.660000,9.755498,-0.010176,0.546343,-0.262927,0.001276,0.029804
14.670000,9.497445,0.004350,0.633339,-0.259599,0.001276,0.029401
14.680000,9.672551,0.049766,0.643199,-0.257207,-0.000538,0.028824
14.690000,9.852944,0.027569,0.676109,-0.254940,-0.001778,0.027012
14.700000,9.843226,-0.005747,0.697725,-0.252780,-0.002526,0.024145
14.710000,9.833509,-0.039064,0.719341,-0.250620,-0.003273,0.021279
14.720000,9.847993,-0.113164,0.697877,-0.248459,-0.004021,0.018413
14.730000,9.886000,-0.324623,0.608273,-0.246137,-0.000204,0.013831
14.740000,9.859876,-0.502446,0.595286,-0.239750,0.002565,0.004990
14.750000,9.842103,-0.438586,0.644627,-0.236269,0.001544,-0.001228
14.760000,9.913164,-0.310950,0.630598,-0.232789,0.000524,-0.007446
14.770000,9.984225,-0.183315,0.616569,-0.229309,-0.000497,-0.013664
14.780000,10.055286,-0.055680,0.602539,-0.225544,0.002379,-0.014798
14.790000,10.012416,0.068636,0.616855,-0.221743,0.005744,-0.015297
14.800000,9.878214,0.183276,0.655605,-0.216982,0.006801,-0.014861
14.810000,10.033800,0.172392,0.654964,-0.211992,0.005911,-0.014180
14.820000,10.134189,0.117968,0.641548,-0.209169,0.007214,-0.015556
14.830000,9.982144,-0.135579,0.569703,-0.206338,0.007913,-0.017239
14.840000,9.965257,0.035728,0.668486,-0.203870,0.007409,-0.019318
14.850000,9.885049,0.046210,0.574834,-0.202126,0.008926,-0.019962
14.860000,9.804841,0.056692,0.481183,-0.200381,0.010442,-0.020607
14.870000,9.802615,0.156244,0.569380,-0.198637,0.011959,-0.021251
14.880000,9.819434,0.277352,0.698056,-0.196794,0.012571,-0.021397
14.890000,9.890040,0.446882,0.691849,-0.194745,0.011313,-0.020512
14.900000,9.879189,0.507961,0.700677,-0.192696,0.010056,-0.019628
14.910000,9.777024,0.447461,0.726361,-0.190609,0.008799,-0.018809
14.920000,9.678118,0.514201,0.713846,-0.188202,0.007594,-0.018820
14.930000,9.772552,0.654354,0.665376,-0.187158,0.007783,-0.016081
14.940000,9.727042,0.517135,0.491559,-0.184762,0.009489,-0.012503
14.950000,9.917904,0.459976,0.580031,-0.182832,0.003359,-0.012390
14.960000,9.812125,0.410629,0.842027,-0.180605,0.002148,-0.013014
14.970000,9.786403,0.368908,0.807521,-0.178281,0.001507,-0.014536
14.980000,9.835004,0.385282,0.749997,-0.175914,0.001894,-0.015783
14.990000,9.903588,0.441978,0.632834,-0.173452,0.004501,-0.016435
15.000000,9.792366,0.402226,0.475938,-0.171122,0.005665,-0.016769
15.010000,9.726853,0.468438,0.568663,-0.169294,0.001318,-0.015887
15.020000,9.667042,0.547486,0.668613,-0.167467,-0.003029,-0.015004
15.030000,9.564804,0.570643,0.704647,-0.163732,-0.003282,-0.012980
15.040000,9.375450,0.429329,0.619911,-0.160314,-0.004326,-0.009467
15.050000,9.679540,0.275247,0.513638,-0.157082,-0.002591,-0.007352
15.060000,9.595170,0.303528,0.426440,-0.152212,-0.001100,-0.005710
15.070000,9.552958,0.379051,0.514318,-0.149861,-0.002476,-0.006050
15.080000,9.633716,0.271924,0.703657,-0.146930,-0.002170,-0.005438
15.090000,9.608168,0.213157,0.557848,-0.143687,0.001129,-0.004935
15.100000,9.575876,0.162667,0.402535,-0.140973,0.004056,-0.004988
15.110000,9.659413,0.354747,0.329060,-0.138317,0.006959,-0.005061
15.120000,9.442818,0.294757,0.405244,-0.137034,0.009007,-0.005909
15.130000,9.441999,0.275497,0.397868,-0.135358,0.010239,-0.007585
15.140000,9.441179,0.256237,0.390491,-0.133682,0.011472,-0.009261
15.150000,9.444397,0.263280,0.384159,-0.131722,0.012439,-0.010802
15.160000,9.459383,0.346980,0.380869,-0.128120,0.011870,-0.011560
15.170000,9.479124,0.304848,0.429436,-0.126130,0.010943,-0.011328
15.180000,9.502122,0.186485,0.509324,-0.125536,0.009704,-0.010238
15.190000,9.565727,0.301710,0.480749,-0.124942,0.008466,-0.009148
15.200000,9.629331,0.416936,0.452173,-0.124514,0.010867,-0.007988
15.210000,9.654489,0.381585,0.491612,-0.124229,0.016528,-0.006872
15.220000,9.679902,0.279113,0.502662,-0.123438,0.012461,-0.006872
15.230000,9.727929,0.268957,0.449481,-0.121610,0.012402,-0.006607
15.240000,9.706374,0.317656,0.453154,-0.119441,0.013663,-0.006254
15.250000,9.684819,0.366356,0.456826,-0.117272,0.014925,-0.005900
15.260000,9.663263,0.415055,0.460499,-0.114763,0.017118,-0.004418
15.270000,9.735352,0.470607,0.482015,-0.112229,0.019251,-0.002556
15.280000,9.971708,0.538180,0.534834,-0.111860,0.012850,-0.001695
15.290000,10.106544,0.570395,0.571257,-0.108659,0.017194,-0.000545
15.300000,10.038887,0.532089,0.574977,-0.107745,0.015714,-0.000893
15.310000,9.971230,0.493782,0.578698,-0.106831,0.014234,-0.001241
15.320000,9.903573,0.455475,0.582418,-0.105917,0.012754,-0.001590
15.330000,9.835916,0.417168,0.586139,-0.101977,0.010871,-0.001680
15.340000,9.978988,0.469733,0.616002,-0.098428,0.009109,-0.001434
15.350000,10.103818,0.466583,0.706006,-0.096597,0.007654,-0.000895
15.360000,10.062329,0.440577,0.679850,-0.094766,0.006200,-0.000356
15.370000,10.020840,0.414572,0.653694,-0.092815,0.004714,-0.000387
15.380000,9.979351,0.388566,0.627538,-0.090791,0.003208,-0.000763
15.390000,9.954945,0.390723,0.632832,-0.088768,0.001702,-0.001140
15.400000,9.935920,0.419625,0.657337,-0.086284,0.000084,-0.002190
15.410000,9.713288,0.502830,0.455963,-0.084224,0.005389,-0.000133
15.420000,9.894805,0.454396,0.441638,-0.082687,-0.000096,0.003072
15.430000,9.957104,0.498609,0.464079,-0.082001,0.000362,0.004445
15.440000,9.814440,0.470288,0.516926,-0.081104,0.000808,0.005871
15.450000,9.502525,0.384058,0.541448,-0.078684,0.001171,0.007686
15.460000,9.480176,0.343123,0.495507,-0.077127,0.000226,0.009600
15.470000,9.570519,0.313990,0.441170,-0.075656,0.000603,0.010568
15.480000,9.625628,0.303567,0.480074,-0.074600,0.001538,0.010441
15.490000,9.634871,0.283144,0.461439,-0.074084,0.002244,0.009545
15.500000,9.644113,0.262722,0.442805,-0.073568,0.002950,0.008649
15.510000,9.653356,0.242299,0.424171,-0.073052,0.003656,0.007753
15.520000,9.626489,0.253491,0.425265,-0.072536,0.004362,0.006857
15.530000,9.489774,0.360860,0.486372,-0.072020,0.005068,0.005961
15.540000,9.512090,0.393343,0.496602,-0.071926,0.006747,0.005472
15.550000,9.685331,0.354756,0.458547,-0.070251,0.007654,0.005402
15.560000,9.750729,0.225811,0.481708,-0.068794,0.008448,0.005289
15.570000,9.673225,0.174396,0.481450,-0.068343,0.008719,0.004973
15.580000,9.674847,0.205148,0.456285,-0.067892,0.008989,0.004657
15.590000,9.765255,0.178278,0.534365,-0.067440,0.009260,0.004341
15.600000,9.812054,0.180867,0.566531,-0.066575,0.005966,0.005693
15.610000,9.781116,0.235968,0.516849,-0.064339,0.006740,0.005433
15.620000,9.750178,0.291069,0.467168,-0.062566,0.005182,0.004572
15.630000,9.915493,0.271831,0.625257,-0.061711,0.001962,0.003761
15.640000,9.911038,0.330418,0.567075,-0.060602,0.002202,0.003371
15.650000,9.906584,0.389004,0.508894,-0.059492,0.002441,0.002981
15.660000,9.902129,0.447591,0.450712,-0.058383,0.002681,0.002591
15.670000,9.897675,0.506178,0.392530,-0.057273,0.002921,0.002202
15.680000,9.842507,0.451653,0.500096,-0.056519,0.002637,0.002652
15.690000,9.784252,0.390242,0.617753,-0.056207,0.001701,0.004151
15.700000,9.655854,0.436517,0.443632,-0.055894,0.000765,0.005649
15.710000,9.658096,0.397807,0.300641,-0.055174,0.000895,0.006633
15.720000,9.755127,0.290495,0.211000,-0.054452,0.001026,0.007617
15.730000,9.618666,0.303219,0.210686,-0.053295,0.001886,0.007329
15.740000,9.698920,0.273912,0.299414,-0.053134,-0.001939,0.006293
15.750000,9.748704,0.225658,0.329198,-0.053042,0.000998,0.005283
15.760000,9.558062,0.185543,0.197774,-0.051615,0.002539,0.004390
15.770000,9.657422,0.229558,0.337389,-0.049346,0.003648,0.003489
15.780000,9.698803,0.202675,0.253926,-0.049421,0.008615,0.002135
15.790000,9.735393,0.172737,0.160787,-0.049243,0.012996,0.000832
15.800000,9.676553,0.180548,0.166381,-0.048133,0.015216,-0.000278
15.810000,9.581893,0.238260,0.270014,-0.046960,0.015577,-0.000334
15.820000,9.568638,0.235953,0.286056,-0.046643,0.015753,-0.000864
15.830000,9.570623,0.214724,0.270783,-0.046534,0.015972,-0.001556
15.840000,9.572609,0.193495,0.255510,-0.046424,0.016191,-0.002248
15.850000,9.574594,0.172266,0.240237,-0.046315,0.016409,-0.002940
15.860000,9.761829,-0.017214,0.179467,-0.045771,0.025220,-0.003883
15.870000,9.693760,-0.005227,0.267015,-0.045334,0.025438,-0.006068
15.880000,9.625691,0.006760,0.354563,-0.044898,0.025657,-0.008252
15.890000,9.628080,-0.000696,0.383951,-0.044478,0.025551,-0.010003
15.900000,9.752995,-0.041963,0.312199,-0.044100,0.024699,-0.010760
15.910000,9.758084,-0.015310,0.391390,-0.043954,0.024963,-0.014142
15.920000,9.659756,0.054799,0.401543,-0.043144,0.026810,-0.015959
15.930000,9.708365,0.199377,0.403704,-0.043024,0.025638,-0.015003
15.940000,9.722951,0.137005,0.159827,-0.043314,0.028723,-0.015117
15.950000,9.938081,0.083747,0.267794,-0.043773,0.023363,-0.014372
15.960000,9.975854,0.152748,0.584550,-0.044210,0.020306,-0.013366
15.970000,9.702638,0.195064,0.499922,-0.044587,0.023568,-0.013422
15.980000,9.786891,0.435153,0.388925,-0.045862,0.021830,-0.010051
15.990000,10.008747,0.391099,0.456482,-0.045726,0.020901,-0.006796
16.000000,9.914329,0.217199,0.332456,-0.046238,0.023454,-0.005148
16.010000,9.965080,0.365117,0.414309,-0.045910,0.020156,-0.003445
16.020000,9.949337,0.397210,0.402580,-0.045509,0.016983,-0.001755
16.030000,9.883408,0.336611,0.320379,-0.045509,0.017054,-0.000200
16.040000,9.866092,0.371910,0.322927,-0.045648,0.018271,0.000944
16.050000,9.845103,0.513680,0.372099,-0.046140,0.022399,0.001042
16.060000,9.759817,0.635517,0.371898,-0.046480,0.021451,0.002826
16.070000,9.895238,0.520997,0.510802,-0.046881,0.019935,0.004799
16.080000,9.822414,0.487872,0.551890,-0.047041,0.017909,0.006290
16.090000,9.780171,0.441554,0.545946,-0.046596,0.013462,0.007291
16.100000,9.868334,0.342420,0.509897,-0.046092,0.012119,0.007720
16.110000,9.956497,0.243285,0.473848,-0.045586,0.010903,0.008125
16.120000,9.951087,0.200221,0.443762,-0.045079,0.009688,0.008530
16.130000,9.768635,0.263243,0.424960,-0.044758,0.012947,0.005129
16.140000,9.747908,0.265276,0.423829,-0.044450,0.013265,0.003374
16.150000,9.767282,0.247856,0.413131,-0.044146,0.009968,0.003729
16.160000,9.684017,0.261276,0.365856,-0.043842,0.006671,0.004084
16.170000,9.671284,0.331389,0.353082,-0.043598,0.005071,0.005249
16.180000,9.768080,0.489539,0.393885,-0.043426,0.005472,0.007371
16.190000,9.648550,0.481374,0.398037,-0.043254,0.005874,0.009493
16.200000,9.655144,0.607115,0.305852,-0.040301,0.002742,0.015217
16.210000,9.388397,0.614602,0.188395,-0.039483,0.007854,0.018041
16.220000,9.533383,0.572014,0.243256,-0.037791,0.004512,0.021321
16.230000,9.900597,0.535427,0.398646,-0.037869,0.000472,0.023288
16.240000,9.910454,0.446709,0.422647,-0.037314,0.003206,0.021941
16.250000,9.920312,0.357991,0.446648,-0.036759,0.005940,0.020593
16.260000,9.819357,0.254861,0.348279,-0.036204,0.008675,0.019246
16.270000,9.707040,0.183423,0.260322,-0.035797,0.007708,0.018433
16.280000,9.790663,0.328937,0.424877,-0.035583,0.001843,0.018326
16.290000,10.052316,0.214853,0.359792,-0.035737,0.005459,0.011654
16.300000,10.020459,0.260278,0.387592,-0.035023,0.004475,0.010271
16.310000,9.987757,0.306294,0.415389,-0.034095,0.004033,0.009167
16.320000,10.016253,0.363963,0.420174,-0.033168,0.003592,0.008063
16.330000,10.124353,0.436791,0.395027,-0.031984,0.003902,0.008722
16.340000,10.133780,0.414760,0.449579,-0.030628,0.004071,0.011284
16.350000,10.077768,0.329819,0.556986,-0.029367,0.003408,0.013806
16.360000,10.007169,0.352903,0.404908,-0.028187,0.003410,0.015766
16.370000,9.919818,0.354639,0.291026,-0.027340,0.004657,0.015892
16.380000,9.823109,0.276015,0.356704,-0.026720,0.003070,0.015931
16.390000,9.726401,0.197392,0.422382,-0.026101,0.001483,0.015969
16.400000,9.752537,0.168083,0.455338,-0.025482,-0.000104,0.016008
16.410000,9.963909,0.192024,0.370797,-0.025088,0.000512,0.015232
16.420000,9.956374,0.120816,0.240017,-0.025472,0.003717,0.012495
16.430000,9.940396,0.245166,0.324427,-0.025783,0.000942,0.009670
16.440000,9.748545,0.204528,0.315780,-0.025225,0.002650,0.007079
16.450000,9.680464,0.168324,0.343764,-0.024712,0.004361,0.004639
16.460000,9.676968,0.134083,0.338037,-0.024333,0.003452,0.003350
16.470000,9.527965,0.035409,0.124730,-0.023699,0.003946,0.001185
16.480000,9.754508,0.111164,0.374677,-0.022795,0.001917,-0.003221
16.490000,9.672455,0.145142,0.264943,-0.021702,0.004634,-0.006403
16.500000,9.527793,0.215621,0.399982,-0.021354,0.002874,-0.009757
16.510000,9.474153,0.417440,0.487107,-0.020597,0.001416,-0.008450
16.520000,9.526791,0.459014,0.449668,-0.020099,0.002492,-0.005798
16.530000,9.579430,0.500588,0.412229,-0.019600,0.003569,-0.003147
16.540000,9.632068,0.542162,0.374791,-0.019101,0.004645,-0.000495
16.550000,9.684706,0.583736,0.337352,-0.018602,0.005721,0.002156
16.560000,9.737344,0.625310,0.299913,-0.018103,0.006798,0.004808
16.570000,9.809551,0.642706,0.306153,-0.016909,0.005899,0.008299
16.580000,9.866749,0.614307,0.370103,-0.015823,0.003640,0.010618
16.590000,9.850387,0.556849,0.475695,-0.015961,0.004054,0.010964
16.600000,9.964952,0.321112,0.592022,-0.015286,0.000394,0.011080
16.610000,10.004680,0.239333,0.498632,-0.013926,-0.002806,0.007798
16.620000,10.008018,0.241504,0.360221,-0.013002,0.000254,0.000573
16.630000,10.003526,0.244742,0.602171,-0.013330,-0.006374,-0.002067
16.640000,9.728901,0.228717,0.463013,-0.014307,-0.002032,-0.003913
16.650000,9.983699,0.358192,0.421149,-0.014192,-0.006302,-0.007224
16.660000,9.864927,0.424506,0.303861,-0.013939,-0.003512,-0.008365
16.670000,9.917396,0.474217,0.404210,-0.012963,-0.007881,-0.007929
16.680000,9.879083,0.441542,0.509767,-0.011270,-0.011895,-0.007038
16.690000,9.780522,0.366144,0.549438,-0.008996,-0.010366,-0.005426
16.700000,9.721883,0.321281,0.551204,-0.008648,-0.010644,-0.003686
16.710000,9.747200,0.330217,0.556572,-0.008363,-0.011105,-0.002042
16.720000,9.786324,0.348001,0.562532,-0.008234,-0.012022,-0.000638
16.730000,9.825449,0.365785,0.568492,-0.008105,-0.012940,0.000767
16.740000,9.864574,0.383569,0.574452,-0.007976,-0.013857,0.002172
16.750000,9.903698,0.401353,0.580412,-0.007847,-0.014774,0.003577
16.760000,9.942823,0.419137,0.586372,-0.007717,-0.015692,0.004982
16.770000,9.968915,0.422288,0.601016,-0.007588,-0.016609,0.006386
16.780000,9.987356,0.416850,0.620758,-0.007459,-0.017527,0.007791
16.790000,10.005798,0.411412,0.640500,-0.007330,-0.018444,0.009196
16.800000,10.024239,0.405975,0.660242,-0.007201,-0.019362,0.010601
16.810000,10.042681,0.400537,0.679983,-0.007072,-0.020279,0.012006
16.820000,9.733473,0.339592,0.455240,-0.007738,-0.015270,0.010741
16.830000,9.846113,0.428308,0.417189,-0.008647,-0.015560,0.011845
16.840000,9.782880,0.433634,0.342716,-0.009350,-0.017366,0.012966
16.850000,9.602202,0.416444,0.415293,-0.009936,-0.018874,0.013469
16.860000,9.721514,0.370462,0.430899,-0.011091,-0.022519,0.017317
16.870000,9.757291,0.347297,0.344929,-0.011301,-0.020238,0.018511
16.880000,9.829134,0.360220,0.407113,-0.010858,-0.023635,0.017657
16.890000,9.698638,0.211799,0.369493,-0.010490,-0.022736,0.016049
16.900000,9.760520,0.194891,0.372033,-0.010007,-0.024891,0.015842
16.910000,9.640210,0.363865,0.533107,-0.010074,-0.025646,0.016178
16.920000,9.473016,0.221803,0.330754,-0.010981,-0.022693,0.016574
16.930000,9.905588,0.272905,0.380511,-0.011148,-0.021204,0.017507
16.940000,9.978211,0.327233,0.363903,-0.010880,-0.020722,0.018362
16.950000,9.882337,0.383071,0.316230,-0.009664,-0.022587,0.018524
16.960000,9.997853,0.275299,0.549271,-0.008858,-0.021870,0.018441
16.970000,10.027655,0.148542,0.434518,-0.008586,-0.017833,0.017388
16.980000,10.016226,0.099359,0.485086,-0.007529,-0.018891,0.014920
16.990000,10.023478,0.143396,0.514693,-0.007283,-0.019137,0.012456
17.000000,10.082865,0.039338,0.457675,-0.007398,-0.018811,0.009739
17.010000,10.067615,0.070238,0.565626,-0.006556,-0.018904,0.006371
17.020000,10.048821,0.104438,0.603805,-0.006970,-0.020252,0.004079
17.030000,10.080026,0.186785,0.625524,-0.007555,-0.022385,0.002950
17.040000,10.064626,0.163918,0.535641,-0.007202,-0.022039,0.001555
17.050000,10.207746,0.100847,0.679845,-0.007025,-0.027056,-0.000244
17.060000,10.051522,0.317042,0.768099,-0.006450,-0.026114,-0.002911
17.070000,10.067607,0.252468,0.674432,-0.005843,-0.027505,-0.003397
17.080000,10.083691,0.187894,0.580764,-0.005241,-0.029129,-0.003758
17.090000,10.292098,0.118873,0.438798,-0.004966,-0.027552,-0.004050
17.100000,9.987438,0.177039,0.510762,-0.004623,-0.027004,-0.004748
17.110000,9.862836,0.178716,0.573631,-0.004123,-0.029666,-0.005829
17.120000,9.931594,0.100634,0.578302,-0.004322,-0.030902,-0.007167
17.130000,9.896203,0.128577,0.540083,-0.004525,-0.031479,-0.009034
17.140000,9.933148,0.174195,0.507333,-0.004123,-0.032922,-0.011422
17.150000,9.750601,0.073892,0.513457,-0.004123,-0.032690,-0.013517
17.160000,9.677464,0.055146,0.590555,-0.004647,-0.034384,-0.016735
17.170000,9.604326,0.036399,0.667653,-0.005191,-0.036150,-0.019996
17.180000,9.757373,0.088637,0.664715,-0.005345,-0.039568,-0.021235
17.190000,9.981220,0.079760,0.483597,-0.006190,-0.038241,-0.023300
17.200000,9.913658,0.126122,0.386969,-0.007873,-0.038233,-0.025304
17.210000,9.839767,0.265004,0.431512,-0.009029,-0.039270,-0.024743
17.220000,9.801782,0.401593,0.471058,-0.009949,-0.039117,-0.024027
17.230000,9.733364,0.346630,0.555236,-0.010869,-0.038964,-0.023311
17.240000,9.698532,0.304529,0.568736,-0.009587,-0.037416,-0.021100
17.250000,9.756119,0.558124,0.380146,-0.008972,-0.032695,-0.018770
17.260000,9.630348,0.485718,0.495224,-0.009968,-0.034144,-0.017321
17.270000,9.828395,0.431866,0.526420,-0.010361,-0.032541,-0.015344
17.280000,9.739978,0.483071,0.447228,-0.009948,-0.026868,-0.012662
17.290000,9.694724,0.506884,0.384067,-0.008757,-0.027562,-0.012073
17.300000,9.724036,0.471733,0.353554,-0.007989,-0.026027,-0.012043
17.310000,9.596988,0.313768,0.359351,-0.008050,-0.022586,-0.012675
17.320000,9.460179,0.399940,0.632417,-0.007898,-0.024591,-0.012761
17.330000,9.555772,0.456444,0.703417,-0.007791,-0.020404,-0.012976
17.340000,9.764922,0.470946,0.646376,-0.007192,-0.020983,-0.014249
17.350000,9.489533,0.356941,0.602486,-0.006581,-0.021670,-0.015547
17.360000,9.392658,0.328155,0.544249,-0.006553,-0.014503,-0.016742
17.370000,9.528593,0.463624,0.499192,-0.005477,-0.017063,-0.017120
17.380000,9.476751,0.413557,0.360867,-0.004588,-0.017280,-0.019052
17.390000,9.473359,0.473417,0.434996,-0.003695,-0.019437,-0.018977
17.400000,9.555280,0.652034,0.630275,-0.003416,-0.017685,-0.018152
17.410000,9.524270,0.597444,0.527232,-0.003716,-0.012148,-0.016083
17.420000,9.487278,0.566117,0.465821,-0.002938,-0.012785,-0.011766
17.430000,9.428104,0.621064,0.558809,-0.002159,-0.013422,-0.007448
17.440000,9.368930,0.676011,0.651797,-0.001986,-0.012756,-0.002548
17.450000,9.453738,0.720601,0.642466,-0.001862,-0.012020,0.002398
17.460000,9.691914,0.809707,0.510222,-0.003706,-0.009375,0.009073
17.470000,9.785348,0.844328,0.442392,-0.004736,-0.010874,0.014505
17.480000,9.702729,0.707361,0.443854,-0.005772,-0.011659,0.018142
17.490000,9.620111,0.570394,0.445316,-0.006815,-0.011413,0.019185
17.500000,9.634272,0.420813,0.477325,-0.007858,-0.011168,0.020228
17.510000,9.660113,0.269709,0.513021,-0.009162,-0.012064,0.018174
17.520000,9.825364,0.239906,0.575721,-0.010363,-0.012480,0.015643
17.530000,9.751137,0.283517,0.682465,-0.010085,-0.006096,0.010647
17.540000,9.890166,0.170668,0.477983,-0.010164,-0.008767,0.008237
17.550000,9.942048,0.254400,0.492848,-0.010302,-0.009634,0.005821
17.560000,9.741194,0.409886,0.383432,-0.010314,-0.006602,0.003557
17.570000,9.779035,0.320919,0.624814,-0.009454,-0.010690,0.002749
17.580000,9.718089,0.351608,0.584184,-0.008785,-0.007632,0.002749
17.590000,9.606110,0.255359,0.554386,-0.007483,-0.005231,0.002927
17.600000,9.577309,0.234589,0.398147,-0.006177,-0.004473,0.003695
17.610000,9.505401,0.188339,0.477481,-0.005162,-0.004842,0.004895
17.620000,9.461215,0.227257,0.454129,-0.003815,-0.000919,0.007046
17.630000,9.431355,0.273528,0.412046,-0.003030,-0.001704,0.009681
17.640000,9.401128,0.248891,0.436684,-0.002245,-0.002489,0.012317
17.650000,9.370901,0.224253,0.461321,-0.002030,-0.000495,0.012514
17.660000,9.542035,0.254224,0.550082,-0.001906,0.001937,0.012327
17.670000,9.728241,0.299781,0.645532,-0.002080,0.007150,0.011064
17.680000,9.464136,0.245865,0.601304,-0.001153,0.008841,0.009104
17.690000,10.005768,0.298766,0.487709,-0.000711,0.007781,0.007391
17.700000,9.869749,0.281485,0.530633,-0.002002,0.008469,0.005411
17.710000,9.733730,0.264204,0.573556,-0.002953,0.009130,0.003332
17.720000,9.793282,0.318759,0.609565,-0.003728,0.009775,0.001201
17.730000,9.877693,0.382446,0.644694,-0.004985,0.009169,-0.000710
17.740000,9.979469,0.481023,0.705191,-0.006414,0.008530,-0.001373
17.750000,9.858628,0.468288,0.700380,-0.006414,0.012212,-0.000995
17.760000,9.737788,0.455553,0.695569,-0.006414,0.012981,-0.000789
17.770000,9.864570,0.478380,0.813085,-0.006919,0.009658,0.001148
17.780000,9.659382,0.361892,0.803141,-0.006414,0.009034,0.001455
17.790000,9.660225,0.340796,0.794467,-0.006198,0.007146,0.001861
17.800000,9.868468,0.441832,0.813363,-0.005703,0.007676,0.002350
17.810000,9.692975,0.409687,0.656392,-0.005280,0.009316,0.003251
17.820000,9.864337,0.404297,0.524510,-0.005329,0.006984,0.004198
17.830000,9.740882,0.506302,0.641839,-0.006242,0.008064,0.006667
17.840000,9.519003,0.410590,0.640778,-0.006116,0.008322,0.005517
17.850000,9.638481,0.301483,0.749435,-0.006347,0.006018,0.006093
17.860000,9.588193,0.368728,0.676721,-0.005595,0.010987,0.006303
17.870000,9.507087,0.314775,0.525367,-0.004581,0.013465,0.003995
17.880000,9.675322,0.283784,0.566633,-0.004394,0.010001,0.002459
17.890000,9.739116,0.243585,0.539646,-0.003672,0.012099,0.000156
17.900000,9.542882,0.333738,0.714544,-0.003819,0.013786,0.000154
17.910000,9.916559,0.446233,0.691295,-0.003128,0.016099,-0.000159
17.920000,9.664789,0.455028,0.618677,-0.003795,0.020998,0.000545
17.930000,9.748367,0.467338,0.643574,-0.003252,0.018401,0.003032
17.940000,9.873332,0.427033,0.681518,-0.002828,0.018212,0.004270
17.950000,9.783721,0.255187,0.789270,-0.003075,0.022049,0.002996
17.960000,9.785489,0.313964,0.752533,-0.001853,0.022292,0.002015
17.970000,10.066591,0.330301,0.717653,-0.002076,0.021732,0.001162
17.980000,9.778442,0.206037,0.791428,-0.004173,0.024157,0.000633
17.990000,10.034273,0.139805,0.808739,-0.003374,0.020328,-0.000308
18.000000,10.058247,0.297815,0.820181,-0.004879,0.022107,-0.000582
18.010000,9.757948,0.303252,0.623662,-0.005632,0.027185,-0.001944
18.020000,9.865562,0.144617,0.679715,-0.005158,0.023089,-0.005169
18.030000,9.923432,0.216282,0.732559,-0.005429,0.022360,-0.007048
18.040000,9.746541,0.316922,0.811708,-0.006162,0.023008,-0.006921
18.050000,9.846228,0.344483,0.805202,-0.005527,0.023645,-0.007392
18.060000,9.890868,0.310407,0.753461,-0.005638,0.025529,-0.007923
18.070000,9.667721,0.280325,0.764027,-0.006208,0.027465,-0.007812
18.080000,9.716462,0.418074,0.882425,-0.006148,0.026614,-0.005820
18.090000,9.714309,0.551779,0.940812,-0.006249,0.029561,-0.002684
18.100000,9.825895,0.489800,0.819646,-0.006637,0.032099,0.000254
18.110000,9.898916,0.353047,0.849292,-0.005980,0.033825,0.002395
18.120000,9.909127,0.428680,0.818396,-0.005803,0.035548,0.003285
18.130000,9.712345,0.563184,0.908059,-0.005374,0.036593,0.002788
18.140000,9.897899,0.400841,0.827457,-0.004735,0.037720,0.002901
18.150000,9.966323,0.203065,0.911707,-0.005011,0.037605,0.000384
18.160000,9.751316,0.184724,0.881770,-0.004543,0.040142,-0.003363
18.170000,9.789507,0.261116,0.804946,-0.004336,0.037633,-0.006218
18.180000,9.863094,0.281102,0.887464,-0.004804,0.036169,-0.009757
18.190000,9.686600,0.182032,1.101683,-0.005327,0.034795,-0.011478
18.200000,9.813495,0.359877,1.036668,-0.004887,0.033934,-0.011202
18.210000,9.710484,0.518495,0.881096,-0.005224,0.033045,-0.011571
18.220000,9.558753,0.448850,0.785757,-0.004937,0.031574,-0.010564
18.230000,9.789925,0.393227,0.886236,-0.004639,0.025712,-0.008044
18.240000,9.816385,0.451385,0.920291,-0.004483,0.025289,-0.006947
18.250000,9.613429,0.515555,0.882914,-0.003833,0.027885,-0.006576
18.260000,9.780136,0.490345,1.033862,-0.004542,0.022159,-0.003266
18.270000,9.721730,0.465036,0.817967,-0.002760,0.026709,-0.000905
